"Time (s)","Acceleration x (m/s^2)","Acceleration y (m/s^2)","Acceleration z (m/s^2)"
0.000000000E0,-6.511276245E0,6.140640259E0,3.561340332E0
4.821777000E-3,-6.511276245E0,6.140640259E0,3.561340332E0
9.735108000E-3,-6.511276245E0,6.140640259E0,3.561340332E0
1.461792000E-2,-6.511276245E0,6.140640259E0,3.561340332E0
1.950073300E-2,-6.511276245E0,6.140640259E0,3.561340332E0
2.438354500E-2,-6.511276245E0,6.140640259E0,3.561340332E0
2.926635800E-2,-8.522491455E-1,2.458084106E0,1.325466919E1
3.414917000E-2,-6.775817871E-1,1.699569702E0,1.344848633E1
3.903198300E-2,-8.546447754E-1,1.079818726E0,1.324031067E1
4.391479500E-2,-1.230316162E0,6.754302979E-1,1.258946228E1
4.879760800E-2,-1.754348755E0,6.706542969E-1,1.152705383E1
5.368042000E-2,-2.632507324E0,6.491088867E-1,1.006263733E1
5.853271500E-2,-3.395828247E0,5.581817627E-1,9.069625854E0
6.341552700E-2,-3.898315430E0,6.419372559E-1,8.693954468E0
6.829834000E-2,-3.608779907E0,9.649658203E-1,8.684371948E0
7.318115200E-2,-2.677978516E0,1.465072632E0,8.772918701E0
7.806396500E-2,-1.739990234E0,1.874237061E0,8.751373291E0
8.294677700E-2,-1.065216064E0,2.300155640E0,8.320663452E0
8.782959000E-2,-6.991119385E-1,2.647125244E0,7.523864746E0
9.271240200E-2,-1.048461914E0,2.838546753E0,5.990066528E0
9.759521500E-2,-5.627136230E-1,2.694976807E0,6.222167969E0
1.024780270E-1,6.336975098E-1,2.340835571E0,7.148193359E0
1.073608400E-1,1.464004517E0,1.840744019E0,7.466430664E0
1.122436520E-1,1.679351807E0,1.395675659E0,7.562149048E0
1.171264650E-1,1.521423340E0,1.127685547E0,7.495147705E0
1.220092770E-1,1.339569092E0,1.053497314E0,7.353973389E0
1.268920900E-1,1.227111816E0,1.098968506E0,7.229537964E0
1.317749020E-1,1.081146240E0,1.072647095E0,7.179290771E0
1.366271970E-1,7.940063477E-1,8.979644775E-1,7.342010498E0
1.415100100E-1,-8.977203369E-1,7.482910156E-2,1.100062561E1
1.463928220E-1,-2.783264160E0,1.131286621E-1,1.249613953E1
1.512756350E-1,-1.024536133E0,-3.510894775E-1,1.249613953E1
1.561584470E-1,-3.665008545E-1,-9.062194824E-1,1.368058777E1
1.610412600E-1,-1.012573242E0,-1.485290527E0,1.507081604E1
1.659240720E-1,-1.285354614E0,-1.253173828E0,1.701618958E1
1.708068850E-1,-1.359527588E0,-7.578735352E-1,1.744210815E1
1.756896970E-1,-1.424133301E0,-2.864837646E-1,1.696594238E1
1.805725100E-1,-1.747161865E0,-8.070373535E-2,1.604708862E1
1.854553220E-1,-2.601409912E0,7.244873047E-2,1.536035156E1
1.903381350E-1,-4.388839722E0,2.541839600E0,1.521200562E1
1.952209470E-1,-4.829116821E0,2.479629517E0,1.505407715E1
2.001037600E-1,-4.709487915E0,1.498565674E0,1.507321167E1
2.049865720E-1,-3.821746826E0,6.203918457E-1,1.493922424E1
2.098388670E-1,-2.060623169E0,-1.955566406E-1,1.412565613E1
2.147216800E-1,-4.478607178E-1,-8.679351807E-1,1.297709656E1
2.196044920E-1,7.844390869E-1,-1.315399170E0,1.174479675E1
2.244873050E-1,1.397003174E0,-1.382400513E0,1.092405701E1
2.293701170E-1,1.483139038E0,-9.899749756E-1,1.053642273E1
2.342529300E-1,1.267791748E0,-3.941497803E-1,9.974105835E0
2.391357420E-1,9.615020752E-1,2.112274170E-1,9.273010254E0
2.440185550E-1,8.418731689E-1,6.251831055E-1,8.741806030E0
2.489013670E-1,9.638977051E-1,4.313659668E-1,8.268020630E0
2.537841800E-1,1.301284790E0,1.035461426E-1,7.751174927E0
2.586669920E-1,1.607574463E0,1.022338867E-2,7.263046265E0
2.635498050E-1,1.693710327E0,1.394348145E-1,6.820373535E0
2.684326170E-1,1.708068848E0,4.959716797E-1,6.396835327E0
2.733154300E-1,1.667388916E0,9.625701904E-1,6.140808105E0
2.781982420E-1,1.662612915E0,1.161178589E0,6.100128174E0
2.830505370E-1,1.691314697E0,1.189895630E0,6.157562256E0
2.879333500E-1,7.174377441E-1,6.921844482E-1,6.226943970E0
2.928161620E-1,-4.095764160E-1,6.012573242E-1,8.653274536E0
2.976989750E-1,2.245178223E-1,8.142242432E-1,9.194046021E0
3.025817870E-1,1.332397461E0,5.701446533E-1,8.172317505E0
3.074646000E-1,1.808563232E0,7.567901611E-1,6.657653809E0
3.123474120E-1,1.688934326E0,1.087005615E0,6.447082520E0
3.172302250E-1,1.966491699E0,1.302352905E0,6.868225098E0
3.221130370E-1,2.555130005E0,1.326278687E0,7.385070801E0
3.269958500E-1,2.928405762E0,1.280822754E0,7.619567871E0
3.318786620E-1,2.921234131E0,1.371749878E0,7.770324707E0
3.367614750E-1,2.571884155E0,1.532058716E0,8.009597778E0
3.416442870E-1,1.942565918E0,1.742630005E0,8.382888794E0
3.465271000E-1,1.279754639E0,1.960372925E0,8.813598633E0
3.514099120E-1,7.461547852E-1,2.017807007E0,9.110305786E0
3.562622070E-1,2.484436035E-1,2.001052856E0,9.150985718E0
3.611450200E-1,-3.330078125E-1,1.943634033E0,8.904525757E0
3.660278320E-1,-8.020019531E-1,1.804840088E0,8.591064453E0
3.709106450E-1,-6.416778564E-1,1.577529907E0,8.387664795E0
3.757934570E-1,-6.584320068E-1,1.433959961E0,8.136428833E0
3.806762700E-1,-1.393035889E0,1.252105713E0,8.136428833E0
3.855590820E-1,-1.984054565E0,9.482116699E-1,8.445098877E0
3.904418950E-1,-1.948165894E0,6.467132568E-1,8.705917358E0
3.953247070E-1,-1.534210205E0,3.739318848E-1,8.933227539E0
4.002075200E-1,-1.089141846E0,1.873016357E-1,9.124664307E0
4.050903320E-1,-6.967163086E-1,2.375488281E-1,9.189270020E0
4.099731450E-1,-3.282165527E-1,3.906860352E-1,9.117477417E0
4.148559570E-1,4.505920410E-2,5.318603516E-1,9.007415771E0
4.197387700E-1,4.183349609E-1,5.964660645E-1,8.835128784E0
4.246215820E-1,8.753662109E-1,4.983673096E-1,8.567123413E0
4.295043950E-1,1.475967407E0,7.722473145E-2,8.703521729E0
4.343566900E-1,2.189025879E0,-3.510894775E-1,8.739410400E0
4.392395020E-1,2.512054443E0,-4.479980469E-2,9.505111694E0
4.441223150E-1,2.440277100E0,3.595886230E-1,8.619766235E0
4.490051270E-1,2.535980225E0,8.166046143E-1,9.648681641E0
4.538879400E-1,2.387634277E0,1.968688965E-1,1.073023987E1
4.587707520E-1,3.249053955E0,5.892944336E-1,1.018467712E1
4.636535650E-1,4.227706909E0,9.314727783E-1,1.001718140E1
4.685363770E-1,4.742172241E0,1.514129639E-1,1.016792297E1
4.734191900E-1,4.555526733E0,-5.185852051E-1,1.026603699E1
4.783020020E-1,3.732391357E0,-7.865753174E-1,1.037849426E1
4.831848150E-1,2.775268555E0,-4.228668213E-1,1.052925110E1
4.880676270E-1,2.263198853E0,-2.338409424E-1,1.035696411E1
4.929504400E-1,1.224716187E0,2.064361572E-1,9.222763062E0
4.978332520E-1,1.397003174E0,-4.479980469E-2,8.631729126E0
5.027160650E-1,1.595611572E0,-3.486938477E-1,7.935424805E0
5.075683590E-1,1.593215942E0,-4.659423828E-1,7.605209351E0
5.124511720E-1,1.454437256E0,-2.218780518E-1,7.583679199E0
5.173339840E-1,1.499893188E0,-1.668395996E-1,7.633926392E0
5.222167970E-1,1.655426025E0,-4.539794922E-1,7.858856201E0
5.270996090E-1,2.287139893E0,-4.731140137E-1,8.760955811E0
5.319824220E-1,2.906875610E0,-7.267608643E-1,9.270614624E0
5.368652340E-1,3.605575562E0,-8.655395508E-1,1.012486267E1
5.417480470E-1,4.323425293E0,-9.971466064E-1,1.093363953E1
5.466308590E-1,4.849853516E0,-1.159866333E0,1.138587952E1
5.515136720E-1,5.361907959E0,-1.025863647E0,1.218029785E1
5.563964840E-1,5.771087646E0,-1.114395142E0,1.270910645E1
5.612792970E-1,5.864410400E0,-2.026062012E0,1.110591125E1
5.661621090E-1,5.696899414E0,-1.963851929E0,1.096713257E1
5.710449220E-1,4.926422119E0,-1.324966431E0,1.169454956E1
5.759277340E-1,4.445465088E0,-1.068939209E0,1.177590942E1
5.808105470E-1,4.536392212E0,-1.164642334E0,1.176872253E1
5.856628420E-1,4.914459229E0,-1.066543579E0,1.191708374E1
5.905456540E-1,5.337982178E0,-1.078506470E0,1.134999084E1
5.954284670E-1,5.780654907E0,-1.128753662E0,1.028756714E1
6.003112790E-1,6.153930664E0,-1.054580688E0,9.179687500E0
6.051940920E-1,6.371688843E0,-9.229736328E-1,8.026351929E0
6.100769040E-1,6.467391968E0,-8.655395508E-1,6.935226440E0
6.149597170E-1,6.273574829E0,-7.841949463E-1,5.856063843E0
6.198425290E-1,5.816543579E0,-6.071166992E-1,4.346191406E0
6.247253420E-1,5.165695190E0,-4.204711914E-1,3.101928711E0
6.296081540E-1,4.584243774E0,-5.185852051E-1,3.209594727E0
6.344909670E-1,4.139175415E0,-4.826965332E-1,3.353164673E0
6.393737790E-1,3.830505371E0,-2.769165039E-1,3.752777100E0
6.442565920E-1,3.832901001E0,-2.003326416E-1,4.504119873E0
6.491394040E-1,4.287536621E0,-1.453094482E-1,5.363143921E0
6.540222170E-1,4.897705078E0,-9.744262695E-2,6.147979736E0
6.588745120E-1,5.354736328E0,-1.955566406E-1,6.884979248E0
6.637573240E-1,5.706481934E0,-5.042266846E-1,7.523864746E0
6.686401370E-1,5.948150635E0,-9.157867432E-1,8.033523560E0
6.735229490E-1,5.948150635E0,-1.207717896E0,8.351776123E0
6.784057620E-1,5.555725098E0,-1.341720581E0,8.650878906E0
6.832885740E-1,5.000595093E0,-1.607315063E0,9.012191772E0
6.881713870E-1,4.715850830E0,-1.714996338E0,9.634323120E0
6.930541990E-1,4.411956787E0,-1.801132202E0,9.957366943E0
6.979370120E-1,3.746749878E0,-2.071533203E0,9.684585571E0
7.028198240E-1,2.576660156E0,-2.361053467E0,8.909301758E0
7.077026370E-1,2.251235962E0,-1.908813477E0,8.002426147E0
7.125854490E-1,1.930603027E0,-9.421081543E-1,3.671417236E0
7.174682620E-1,4.474166870E0,-1.738922119E0,5.609603882E0
7.223510740E-1,6.800003052E0,-1.777206421E0,6.951980591E0
7.272338870E-1,7.840881348E0,-1.301040649E0,7.502319336E0
7.320861820E-1,8.687927246E0,-1.033035278E0,7.519073486E0
7.369689940E-1,9.678558350E0,-1.076110840E0,7.408996582E0
7.418518070E-1,1.011883545E1,-1.090469360E0,7.119476318E0
7.467346190E-1,9.767089844E0,-1.205322266E0,6.940017700E0
7.516174320E-1,8.891326904E0,-1.473327637E0,6.954360962E0
7.565002440E-1,7.953338623E0,-1.717391968E0,6.863433838E0
7.613830570E-1,7.304885864E0,-2.021270752E0,6.660049438E0
7.662658690E-1,7.101486206E0,-2.471130371E0,6.705520630E0
7.711486820E-1,7.091918945E0,-2.779800415E0,7.054870605E0
7.760314940E-1,6.984237671E0,-2.813308716E0,7.564544678E0
7.809143070E-1,6.855026245E0,-2.748687744E0,8.145996094E0
7.857971190E-1,6.821533203E0,-2.655380249E0,8.533630371E0
7.906799320E-1,6.979461670E0,-2.495056152E0,8.547988892E0
7.955627440E-1,7.324020386E0,-2.382598877E0,8.323059082E0
8.004455570E-1,7.740371704E0,-2.262954712E0,8.162750244E0
8.052978520E-1,8.333801270E0,-2.131347656E0,8.480987549E0
8.101806640E-1,9.013351440E0,-2.071533203E0,8.772918701E0
8.150634770E-1,9.470382690E0,-2.105026245E0,8.796844482E0
8.199462890E-1,9.700103760E0,-2.124160767E0,8.648483276E0
8.248291020E-1,9.587631226E0,-2.145706177E0,8.265640259E0
8.297119140E-1,9.077957153E0,-2.148101807E0,7.854064941E0
8.345947270E-1,8.262008667E0,-2.162460327E0,7.406616211E0
8.394775390E-1,7.405380249E0,-2.073913574E0,7.047683716E0
8.443603520E-1,6.685134888E0,-2.014099121E0,6.834732056E0
8.492431640E-1,6.551147461E0,-2.145706177E0,6.813186646E0
8.541259770E-1,7.316848755E0,-2.461563110E0,7.054870605E0
8.590087890E-1,8.812362671E0,-2.621871948E0,7.588470459E0
8.638916020E-1,1.038923645E1,-2.435241699E0,8.227355957E0
8.687744140E-1,1.136550903E1,-1.990173340E0,8.957153320E0
8.736572270E-1,1.155693054E1,-1.571426392E0,9.677398682E0
8.785400390E-1,1.121235657E1,-1.564254761E0,1.023014832E1
8.833923340E-1,1.062133789E1,-1.851379395E0,1.051010132E1
8.882751470E-1,9.898696899E0,-1.999740601E0,1.051966858E1
8.931579590E-1,9.080352783E0,-1.810714722E0,1.031628418E1
8.980407720E-1,8.381652832E0,-1.521179199E0,9.880783081E0
9.029235840E-1,7.924621582E0,-1.315399170E0,9.249084473E0
9.078063970E-1,7.766693115E0,-1.131149292E0,8.516876221E0
9.126892090E-1,7.871978760E0,-9.205780029E-1,7.703323364E0
9.175720220E-1,8.137588501E0,-6.286468506E-1,6.827545166E0
9.224548340E-1,8.324218750E0,-2.577667236E-1,5.963745117E0
9.273376470E-1,8.491729736E0,7.962036133E-2,5.056854248E0
9.322204590E-1,8.618545532E0,3.212890625E-1,4.157150269E0
9.371032720E-1,8.977462769E0,6.203918457E-1,3.645095825E0
9.419860840E-1,9.278961182E0,1.177932739E0,3.515884399E0
9.468688970E-1,9.202392578E0,1.276031494E0,3.465637207E0
9.517517090E-1,8.735794067E0,1.022399902E0,3.113891602E0
9.566040040E-1,8.582656860E0,6.945800781E-1,2.644897461E0
9.614868160E-1,8.888931274E0,4.935760498E-1,2.183074951E0
9.663696290E-1,9.774276733E0,4.098358154E-1,1.874404907E0
9.712524410E-1,1.106640625E1,2.901916504E-1,1.852874756E0
9.761352540E-1,1.237048340E1,1.322631836E-1,2.099334717E0
9.810180660E-1,1.335154724E1,6.526184082E-2,2.680786133E0
9.859008790E-1,1.376071167E1,6.286621094E-2,3.479995728E0
9.907836910E-1,1.354776001E1,9.637451172E-2,4.410797119E0
9.956665040E-1,1.306201172E1,-1.739501953E-3,5.346389771E0
1.000549316E0,1.229870605E1,-8.547973633E-2,6.145599365E0
1.005432129E0,1.133918762E1,-2.146911621E-1,6.849090576E0
1.010314941E0,1.027676392E1,-3.199768066E-1,7.452072144E0
1.015197754E0,9.207183838E0,-3.104095459E-1,7.820571899E0
1.020080566E0,8.338577271E0,-8.308410645E-2,7.880386353E0
1.024963379E0,7.814559937E0,2.973632812E-1,7.727249146E0
1.029846191E0,7.620727539E0,6.443328857E-1,7.363540649E0
1.034698486E0,7.668594360E0,9.195098877E-1,6.803619385E0
1.039581299E0,8.001190186E0,1.010437012E0,6.054672241E0
1.044464111E0,8.551544189E0,1.034362793E0,5.336822510E0
1.049346924E0,8.924819946E0,9.841156006E-1,4.724258423E0
1.054229736E0,8.910461426E0,8.070373535E-1,4.126052856E0
1.059112549E0,8.774078369E0,6.156158447E-1,3.451278687E0
1.063995361E0,8.690322876E0,5.079345703E-1,2.685577393E0
1.068878174E0,8.673583984E0,4.313659668E-1,1.936614990E0
1.073760986E0,8.853042603E0,1.298675537E-1,1.355163574E0
1.078643799E0,9.523025513E0,-3.989410400E-1,9.699249268E-1
1.083526611E0,1.063569641E1,-9.803924561E-1,7.330322266E-1
1.088409424E0,1.187039185E1,-1.490066528E0,6.038208008E-1
1.093292236E0,1.306201172E1,-2.121780396E0,9.076995850E-1
1.098175049E0,1.335871887E1,-2.231842041E0,1.118270874E0
1.103057861E0,1.246380615E1,-1.784393311E0,1.611190796E0
1.107940674E0,1.098265076E1,-1.217285156E0,2.592254639E0
1.112792969E0,9.542175293E0,-7.889709473E-1,3.554168701E0
1.117675781E0,8.518051147E0,-7.171936035E-1,4.406005859E0
1.122558594E0,7.938980103E0,-9.110107422E-1,5.066436768E0
1.127441406E0,7.764297485E0,-1.190963745E0,5.633529663E0
1.132324219E0,7.943771362E0,-1.502029419E0,6.069015503E0
1.137207031E0,8.218933105E0,-1.805923462E0,6.368133545E0
1.142089844E0,8.429504395E0,-1.942306519E0,6.538009644E0
1.146972656E0,8.714248657E0,-1.887283325E0,6.454269409E0
1.151855469E0,9.025329590E0,-1.674316406E0,5.999633789E0
1.156738281E0,9.113861084E0,-1.143112183E0,5.363143921E0
1.161621094E0,8.898498535E0,-3.630523682E-1,4.587860107E0
1.166503906E0,9.118637085E0,-5.281524658E-1,3.535018921E0
1.171386719E0,1.001354980E1,-1.691070557E0,2.278793335E0
1.176269531E0,1.168853760E1,-3.267944336E0,1.060852051E0
1.181152344E0,1.365542603E1,-4.538528442E0,-8.743286133E-3
1.186004639E0,1.570608521E1,-5.600936890E0,-1.241043091E0
1.190887451E0,1.738584900E1,-5.988571167E0,-2.186218262E0
1.195770264E0,1.813479614E1,-5.428649902E0,-2.602569580E0
1.200653076E0,1.797926331E1,-4.110214233E0,-2.631286621E0
1.205535889E0,1.706759644E1,-2.399337769E0,-2.487716675E0
1.210418701E0,1.545243835E1,-5.329437256E-1,-1.717224121E0
1.215301514E0,1.432542419E1,1.131286621E-1,-1.020904541E0
1.220184326E0,1.349032593E1,-1.476898193E-1,-4.944915771E-1
1.225067139E0,1.225563049E1,-5.783996582E-1,3.193664551E-2
1.229949951E0,1.030787659E1,-6.741180420E-1,6.277465820E-1
1.234832764E0,7.532196045E0,2.782287598E-1,1.556152344E0
1.239715576E0,4.289932251E0,2.003448486E0,2.678390503E0
1.244598389E0,3.241867065E0,1.271240234E0,3.669021606E0
1.249481201E0,3.330398560E0,-1.405181885E-1,4.307907104E0
1.254364014E0,3.954925537E0,-1.655181885E0,4.750579834E0
1.259216309E0,4.636886597E0,-3.253585815E0,5.001831055E0
1.264099121E0,5.878753662E0,-5.387985229E0,5.303314209E0
1.268981934E0,7.742767334E0,-7.486480713E0,5.805816650E0
1.273864746E0,1.017147827E1,-8.981994629E0,6.045089722E0
1.278747559E0,1.257388306E1,-9.549102783E0,6.049880981E0
1.283630371E0,1.457188416E1,-9.309814453E0,5.693344116E0
1.288513184E0,1.599562073E1,-8.534545898E0,4.822357178E0
1.293395996E0,1.671345520E1,-7.565444946E0,3.836517334E0
1.298278809E0,1.664167786E1,-6.694458008E0,2.929641724E0
1.303161621E0,1.596450806E1,-6.091461182E0,2.151977539E0
1.308044434E0,1.464128113E1,-5.567443848E0,1.618377686E0
1.312927246E0,1.311705017E1,-5.263549805E0,1.247482300E0
1.317810059E0,1.148036194E1,-5.119979858E0,1.149383545E0
1.322692871E0,1.011645508E1,-4.995559692E0,6.445007324E-1
1.327575684E0,9.168884277E0,-4.952484131E0,1.922454834E-1
1.332427979E0,8.642471313E0,-5.074523926E0,5.559539795E-1
1.337310791E0,8.137588501E0,-5.110412598E0,1.553771973E0
1.342193604E0,7.745162964E0,-5.007522583E0,2.723861694E0
1.347076416E0,7.264205933E0,-5.289871216E0,3.822158813E0
1.351959229E0,6.474578857E0,-5.988571167E0,4.796035767E0
1.356842041E0,5.517440796E0,-6.646606445E0,5.722061157E0
1.361724854E0,4.572280884E0,-6.955276489E0,6.791656494E0
1.366607666E0,3.964508057E0,-6.895462036E0,7.801422119E0
1.371490479E0,3.926223755E0,-6.668136597E0,8.562347412E0
1.376373291E0,4.344955444E0,-6.431243896E0,8.985870361E0
1.381256104E0,4.062606812E0,-5.725372314E0,9.172515869E0
1.386138916E0,3.189224243E0,-4.818481445E0,9.373504639E0
1.391021729E0,4.184646606E0,-5.880905151E0,9.428543091E0
1.395904541E0,6.273574829E0,-6.976806641E0,9.119873047E0
1.400787354E0,8.300292969E0,-7.783187866E0,9.055267334E0
1.405670166E0,9.379455566E0,-7.921981812E0,9.052871704E0
1.410522461E0,9.621139526E0,-7.091674805E0,8.837524414E0
1.415405274E0,9.219146729E0,-5.756469727E0,8.827941895E0
1.420288086E0,8.525222778E0,-5.476516724E0,8.926055908E0
1.425170899E0,7.486740112E0,-5.883285522E0,8.978698730E0
1.430053711E0,6.388427734E0,-6.191970825E0,8.921264648E0
1.434936524E0,5.371475220E0,-6.144104004E0,8.784881592E0
1.439819336E0,4.675170898E0,-5.947891235E0,8.667633057E0
1.444702149E0,4.292312622E0,-5.653579712E0,8.397247314E0
1.449584961E0,4.057815552E0,-5.349685669E0,7.909103394E0
1.454467774E0,3.962112427E0,-5.012298584E0,7.349182129E0
1.459350586E0,3.998001099E0,-4.722778320E0,6.820373535E0
1.464233399E0,4.218139648E0,-4.598342896E0,6.327453613E0
1.469116211E0,4.553131104E0,-4.732345581E0,5.827346802E0
1.473999024E0,5.086730957E0,-4.928558350E0,5.341598511E0
1.478881836E0,5.826110840E0,-4.844802856E0,4.860641479E0
1.483734131E0,6.759323120E0,-4.524169922E0,4.403625488E0
1.488616943E0,7.687728882E0,-4.428451538E0,3.846084595E0
1.493499756E0,8.541976929E0,-4.588775635E0,3.207214355E0
1.498382568E0,8.896102905E0,-4.610305786E0,2.675994873E0
1.503265381E0,8.549148560E0,-4.516998291E0,2.331436157E0
1.508148193E0,7.513061523E0,-4.433242798E0,2.156753540E0
1.513031006E0,5.945755005E0,-4.275314331E0,2.161544800E0
1.517913818E0,4.306671143E0,-4.048004150E0,2.300323486E0
1.522796631E0,3.055221558E0,-3.660354614E0,2.374511719E0
1.527679443E0,2.428314209E0,-3.143508911E0,2.422363281E0
1.532562256E0,1.803787231E0,-1.387176514E0,4.642898560E0
1.537445068E0,1.052429199E0,-7.100067139E-1,5.449279785E0
1.542327881E0,5.858306885E-1,-1.841812134E0,4.329437256E0
1.547210693E0,1.645858765E0,-2.030853271E0,4.633331299E0
1.552093506E0,3.964508057E0,-2.600341797E0,5.403823853E0
1.556976318E0,6.584640503E0,-3.598144531E0,5.540206909E0
1.561828613E0,8.606582642E0,-4.337524414E0,5.102325439E0
1.566711426E0,9.484741211E0,-4.603134155E0,4.788864136E0
1.571594238E0,9.479965210E0,-4.615097046E0,4.724258423E0
1.576477051E0,8.917648315E0,-4.447601318E0,4.733825684E0
1.581359863E0,8.171081543E0,-3.978607178E0,4.927642822E0
1.586242676E0,7.532196045E0,-3.260757446E0,5.370315552E0
1.591125488E0,7.225921631E0,-2.495056152E0,5.975708008E0
1.596008301E0,7.300094604E0,-2.451980591E0,6.624160767E0
1.600891113E0,7.929412842E0,-3.177017212E0,7.286972046E0
1.605773926E0,8.673583984E0,-3.985778809E0,7.949783325E0
1.610656738E0,9.128219604E0,-4.512207031E0,8.466629028E0
1.615539551E0,9.161712646E0,-4.662948608E0,8.679595947E0
1.620422363E0,8.812362671E0,-4.543304443E0,8.605407715E0
1.625305176E0,8.068191528E0,-4.272918701E0,8.227355957E0
1.630187988E0,7.218734741E0,-4.048004150E0,7.796646118E0
1.635040283E0,6.661209106E0,-4.045608521E0,7.265441895E0
1.639923096E0,6.390823364E0,-4.354278564E0,6.767730713E0
1.644805908E0,6.323822021E0,-4.890274048E0,6.492553711E0
1.649688721E0,6.228118896E0,-5.402328491E0,6.549987793E0
1.654571533E0,5.981658936E0,-5.768432617E0,6.920867920E0
1.659454346E0,5.701690674E0,-5.732543945E0,7.629150391E0
1.664337158E0,5.639480591E0,-5.419082642E0,8.442703247E0
1.669219971E0,5.826110840E0,-4.990768433E0,9.146194458E0
1.674102783E0,6.256820679E0,-4.579208374E0,9.689361572E0
1.678985596E0,6.864608765E0,-4.277709961E0,9.971710205E0
1.683868408E0,7.520233154E0,-4.100646973E0,9.928649902E0
1.688751221E0,8.072982788E0,-4.007324219E0,9.536224365E0
1.693634033E0,8.376861572E0,-4.059967041E0,8.638916016E0
1.698516846E0,8.324218750E0,-4.304031372E0,7.657852173E0
1.703399658E0,8.135192871E0,-4.595947266E0,6.846694946E0
1.708282471E0,8.008377075E0,-4.775421143E0,6.047485352E0
1.713134766E0,7.917449951E0,-4.763458252E0,5.346389771E0
1.718017578E0,7.783447266E0,-4.648590088E0,4.891754150E0
1.722900391E0,7.618347168E0,-4.591171265E0,4.803222656E0
1.727783203E0,7.414947510E0,-4.641418457E0,5.116683960E0
1.732666016E0,7.197204590E0,-4.574417114E0,5.729248047E0
1.737548828E0,6.835891724E0,-4.397354126E0,6.471023560E0
1.742431641E0,6.199401855E0,-4.320785522E0,7.248687744E0
1.747314453E0,5.302093506E0,-4.390167236E0,7.854064941E0
1.752197266E0,4.498107910E0,-4.531341553E0,8.339813232E0
1.757080078E0,4.067398071E0,-4.591171265E0,8.631729126E0
1.761962891E0,4.029113770E0,-4.464355469E0,8.648483276E0
1.766845703E0,4.285140991E0,-4.225067139E0,8.399627686E0
1.771728516E0,4.562713623E0,-3.971420288E0,7.973709106E0
1.776611328E0,4.782852173E0,-3.753677368E0,7.540603638E0
1.781494141E0,5.010162354E0,-3.516784668E0,7.181686401E0
1.786346436E0,5.333190918E0,-3.320587158E0,6.774902344E0
1.791229248E0,5.735183716E0,-3.296646118E0,6.392059326E0
1.796112061E0,6.130004883E0,-3.389968872E0,6.157562256E0
1.800994873E0,6.383651733E0,-3.497650146E0,6.171920776E0
1.805877686E0,6.510467529E0,-3.662750244E0,6.317871094E0
1.810760498E0,6.517639160E0,-3.806320190E0,6.502120972E0
1.815643311E0,6.560714722E0,-3.808715820E0,6.660049438E0
1.820526123E0,6.515243530E0,-3.789566040E0,6.755767822E0
1.825408936E0,6.259216309E0,-3.811111450E0,6.779693604E0
1.830291748E0,5.897903442E0,-3.878112793E0,6.779693604E0
1.835174561E0,5.644256592E0,-3.863754272E0,6.777297974E0
1.840057373E0,5.567687988E0,-3.768035889E0,6.796447754E0
1.844940186E0,5.560516357E0,-3.677108765E0,6.779693604E0
1.849822998E0,5.515045166E0,-3.660354614E0,6.698333740E0
1.854705811E0,5.323623657E0,-3.732147217E0,6.705520630E0
1.859558106E0,5.122634888E0,-3.777603149E0,6.817977905E0
1.864440918E0,5.093917847E0,-3.777603149E0,6.911300659E0
1.869323731E0,5.223129272E0,-3.720184326E0,7.016586304E0
1.874206543E0,5.364303589E0,-3.686676025E0,7.138610840E0
1.879089356E0,5.493515015E0,-3.641220093E0,7.406616211E0
1.883972168E0,5.603591919E0,-3.526367188E0,7.588470459E0
1.888854981E0,5.761505127E0,-3.344512939E0,7.614791870E0
1.893737793E0,5.986434937E0,-3.165039062E0,7.490356445E0
1.898620606E0,6.299896240E0,-3.038223267E0,7.270217896E0
1.903503418E0,6.654037476E0,-3.078903198E0,7.033325195E0
1.908386231E0,7.008178711E0,-3.177017212E0,6.834732056E0
1.913269043E0,7.321624756E0,-3.246398926E0,6.600234985E0
1.918151856E0,7.601593018E0,-3.244003296E0,6.387268066E0
1.923034668E0,7.855224609E0,-3.169830322E0,6.188659668E0
1.927917481E0,7.900695801E0,-3.083694458E0,5.836914062E0
1.932800293E0,7.757125854E0,-3.131546021E0,5.583282471E0
1.937652588E0,7.469985962E0,-3.342117310E0,5.413391113E0
1.942535400E0,7.063201904E0,-3.468933105E0,5.190856934E0
1.947418213E0,6.448257446E0,-3.693862915E0,4.925247192E0
1.952301025E0,5.663406372E0,-4.181991577E0,5.047286987E0
1.957183838E0,5.058013916E0,-4.538528442E0,5.410995483E0
1.962066650E0,4.806777954E0,-4.447601318E0,5.812988281E0
1.966949463E0,4.818740845E0,-4.098251343E0,6.277191162E0
1.971832275E0,4.983840942E0,-3.837432861E0,6.822769165E0
1.976715088E0,5.280548096E0,-3.703430176E0,7.413787842E0
1.981597900E0,5.763900757E0,-3.660354614E0,7.849288940E0
1.986480713E0,6.345367432E0,-3.617294312E0,7.985671997E0
1.991363525E0,6.766494751E0,-3.602935791E0,7.799026489E0
1.996246338E0,6.953140259E0,-3.677108765E0,7.430541992E0
2.001129150E0,6.953140259E0,-3.708221436E0,6.987869263E0
2.006011963E0,6.855026245E0,-3.576614380E0,6.365737915E0
2.010864258E0,6.797607422E0,-3.315795898E0,5.540206909E0
2.015747070E0,6.792816162E0,-2.923370361E0,4.561538696E0
2.020629883E0,6.675567627E0,-2.564453125E0,3.621170044E0
2.025512695E0,6.421936035E0,-2.322769165E0,2.920074463E0
2.030395508E0,6.103683472E0,-2.279708862E0,2.314682007E0
2.035278320E0,5.773468018E0,-2.344314575E0,1.773910522E0
2.040161133E0,5.500686646E0,-2.411300659E0,1.498733521E0
2.045043945E0,5.208770752E0,-2.468734741E0,1.558547974E0
2.049926758E0,4.821136475E0,-2.664947510E0,1.843292236E0
2.054809570E0,4.323425293E0,-3.095657349E0,2.192657471E0
2.059692383E0,3.746749878E0,-3.569427490E0,2.618576050E0
2.064575195E0,3.512252808E0,-3.976211548E0,4.073410034E0
2.069458008E0,3.538574219E0,-4.141311646E0,5.820175171E0
2.074340820E0,3.000198364E0,-4.380599976E0,5.736419678E0
2.079223633E0,2.564697266E0,-4.595947266E0,5.061645508E0
2.084106445E0,2.911666870E0,-4.646209717E0,4.085372925E0
2.088958740E0,4.043472290E0,-4.643814087E0,3.080383301E0
2.093841553E0,5.560516357E0,-4.861557007E0,2.221359253E0
2.098724365E0,6.912460327E0,-5.450195312E0,1.654266357E0
2.103607178E0,7.711654663E0,-6.340316772E0,1.898330688E0
2.108489990E0,7.948547363E0,-6.711212158E0,2.254867554E0
2.113372803E0,7.986831665E0,-6.280502319E0,1.989257812E0
2.118255615E0,8.099304199E0,-5.548294067E0,1.376693726E0
2.123138428E0,8.525222778E0,-4.983596802E0,9.388122559E-1
2.128021240E0,9.444061279E0,-4.706024170E0,6.421051025E-1
2.132904053E0,1.072183228E1,-4.725173950E0,2.472839355E-1
2.137786865E0,1.180818176E1,-4.993164062E0,-2.504272461E-1
2.142669678E0,1.221734619E1,-5.531555176E0,-8.390502930E-1
2.147552490E0,1.187995911E1,-6.191970825E0,-1.408554077E0
2.152435303E0,1.103529358E1,-6.830856323E0,-1.851226807E0
2.157318115E0,1.000398254E1,-7.287872314E0,-2.181427002E0
2.162170410E0,8.979858398E0,-7.472122192E0,-2.439849854E0
2.167053223E0,7.903091431E0,-7.438629150E0,-2.595382690E0
2.171936035E0,6.809570312E0,-7.290267944E0,-2.753311157E0
2.176818848E0,5.783050537E0,-7.318984985E0,-2.834671021E0
2.181701660E0,4.971878052E0,-7.414703369E0,-2.961486816E0
2.186584473E0,4.459823608E0,-7.474517822E0,-3.176849365E0
2.191467285E0,4.251647949E0,-7.407516479E0,-3.291702271E0
2.196350098E0,4.098495483E0,-7.256774902E0,-3.306060791E0
2.201232910E0,3.768295288E0,-7.175415039E0,-3.303665161E0
2.206115723E0,3.490722656E0,-7.259170532E0,-3.258193970E0
2.210998535E0,3.481155396E0,-7.385986328E0,-3.205551147E0
2.215881348E0,3.761108398E0,-7.555877686E0,-2.992599487E0
2.220764160E0,4.285140991E0,-7.823867798E0,-2.691101074E0
2.225646973E0,4.794815063E0,-8.051193237E0,-2.030685425E0
2.230529785E0,5.134597778E0,-8.276107788E0,-8.773345947E-1
2.235412598E0,5.641876221E0,-8.450790405E0,1.491851807E-1
2.240264893E0,6.441070557E0,-8.445999146E0,5.870666504E-1
2.245147705E0,7.180450439E0,-8.249801636E0,4.937438965E-1
2.250030518E0,7.261810303E0,-8.170837402E0,-1.140289307E-1
2.254913330E0,6.177856445E0,-8.367050171E0,-1.023300171E0
2.259796143E0,4.428710938E0,-8.630249023E0,-2.200576782E0
2.264678955E0,2.878158569E0,-8.852783203E0,-3.717620850E0
2.269561768E0,1.882751465E0,-8.938934326E0,-5.461990356E0
2.274444580E0,1.456817627E0,-8.898254395E0,-7.153717041E0
2.279327393E0,1.392211914E0,-8.881500244E0,-8.335769653E0
2.284210205E0,1.657821655E0,-8.970031738E0,-8.790405273E0
2.289093018E0,2.337387085E0,-9.154281616E0,-8.799972534E0
2.293975830E0,3.284942627E0,-9.592163086E0,-7.957702637E0
2.298858643E0,4.306671143E0,-1.012098694E1,-6.330581665E0
2.303741455E0,5.108276367E0,-1.057083130E1,-4.437866211E0
2.308624268E0,5.522232056E0,-1.077661133E1,-2.502075195E0
2.313476563E0,5.821334839E0,-1.074789429E1,-1.075942993E0
2.318359375E0,6.091720581E0,-1.108290100E1,1.587524414E-1
2.323242188E0,6.134796143E0,-1.168827820E1,1.135025024E0
2.328125000E0,5.634689331E0,-1.226495361E1,2.329040527E0
2.333007813E0,4.620132446E0,-1.248748779E1,3.137817383E0
2.337890625E0,3.208374023E0,-1.207830811E1,3.082778931E0
2.342773438E0,1.863601685E0,-1.140113831E1,2.599426270E0
2.347656250E0,9.950103760E-1,-1.086276245E1,1.977294922E0
2.352539063E0,7.605133057E-1,-1.061151123E1,8.789978027E-1
2.357421875E0,1.712860107E0,-1.062586975E1,-6.332702637E-1
2.362304688E0,3.761108398E0,-1.092497253E1,-2.729385376E0
2.367187500E0,6.192214966E0,-1.123124695E1,-4.992996216E0
2.372070313E0,7.836090088E0,-1.141072083E1,-6.663192749E0
2.376953125E0,8.769287109E0,-1.148249817E1,-7.390609741E0
2.381835938E0,8.982254028E0,-1.161650085E1,-7.022109985E0
2.386688233E0,9.147354126E0,-1.199934387E1,-5.658203125E0
2.391571045E0,7.503479004E0,-1.214291382E1,-3.212738037E0
2.396453858E0,6.120437622E0,-1.276983643E1,-6.117401123E-1
2.401336670E0,5.156127930E0,-1.394471741E1,1.553771973E0
2.406219483E0,3.514648438E0,-1.460273743E1,2.604217529E0
2.411102295E0,1.564498901E0,-1.468409729E1,2.671218872E0
2.415985108E0,1.790618896E-1,-1.480134583E1,1.891159058E0
2.420867920E0,-2.779693604E-1,-1.482287598E1,9.268493652E-1
2.425750733E0,9.770202637E-2,-1.430123901E1,1.443939209E-1
2.430633545E0,8.394775391E-1,-1.342068481E1,-8.151245117E-1
2.435516358E0,1.583648682E0,-1.257122803E1,-1.784225464E0
2.440399170E0,2.031097412E0,-1.191560364E1,-2.686309814E0
2.445281983E0,2.028701782E0,-1.144900513E1,-3.475952148E0
2.450164795E0,1.760711670E0,-1.087712097E1,-4.055007935E0
2.455047608E0,1.576461792E0,-1.047033691E1,-4.346939087E0
2.459930420E0,1.511856079E0,-1.004919434E1,-4.031082153E0
2.464782715E0,1.430496216E0,-9.608917236E0,-3.071563721E0
2.469665527E0,1.298904419E0,-9.209320068E0,-1.604766846E0
2.474548340E0,1.222320557E0,-8.919784546E0,-4.586029053E-1
2.479431152E0,1.337188721E0,-8.771423340E0,-4.225158691E-2
2.484313965E0,1.698501587E0,-9.058563232E0,-5.016632080E-1
2.489196777E0,1.942565918E0,-9.656768799E0,-1.377441406E0
2.494079590E0,2.026321411E0,-1.015927124E1,-1.992401123E0
2.498962402E0,2.050247192E0,-1.077900696E1,-2.138351440E0
2.503845215E0,1.830108643E0,-1.119056702E1,-2.198181152E0
2.508728027E0,1.408966064E0,-1.146096802E1,-2.157501221E0
2.513610840E0,1.105072021E0,-1.166195679E1,-1.889511108E0
2.518493652E0,7.987976074E-1,-1.181988525E1,-1.714828491E0
2.523376465E0,3.944091797E-1,-1.214051819E1,-1.585617065E0
2.528259277E0,-1.870422363E-1,-1.259515381E1,-1.619110107E0
2.533142090E0,-7.685089111E-1,-1.271958923E1,-1.556900024E0
2.537994385E0,-1.251846313E0,-1.226016235E1,-1.343948364E0
2.542877197E0,-1.101104736E0,-1.160691833E1,-9.371643066E-1
2.547760010E0,-7.062835693E-1,-1.096325684E1,-4.897003174E-1
2.552642822E0,-5.005035400E-1,-1.039376831E1,-4.609832764E-1
2.557525635E0,-3.306121826E-1,-9.831451416E0,-3.939971924E-1
2.562408447E0,-7.583618164E-3,-9.240417480E0,-6.284942627E-1
2.567291260E0,2.221221924E-1,-8.711608887E0,-9.395599365E-1
2.572174072E0,4.518432617E-1,-8.374221802E0,-1.564086914E0
2.577056885E0,6.384735107E-1,-8.283294678E0,-1.961288452E0
2.581939697E0,7.605133057E-1,-8.304824829E0,-1.626296997E0
2.586822510E0,6.073760986E-1,-8.139724731E0,-1.288909912E0
2.591705322E0,4.087677002E-1,-7.984191895E0,-1.269760132E0
2.596588135E0,5.941772461E-2,-7.957870483E0,-9.132385254E-1
2.601470947E0,-1.846466064E-1,-8.355072021E0,-7.816314697E-1
2.606353760E0,-7.565307617E-1,-9.034637451E0,-9.036560059E-1
2.611236572E0,-1.888336182E0,-9.242813110E0,-8.175201416E-1
2.616088867E0,-2.852645874E0,-9.197357178E0,-9.898071289E-1
2.620971680E0,-3.793029785E0,-8.900650024E0,-9.898071289E-1
2.625854492E0,-4.262023926E0,-8.630249023E0,-8.725585938E-1
2.630737305E0,-4.836303711E0,-8.644607544E0,-3.652801514E-1
2.635620117E0,-4.482162476E0,-9.228454590E0,-2.504272461E-1
2.640502930E0,-4.245269775E0,-9.752487183E0,3.070983887E-1
2.645385742E0,-4.336196899E0,-9.556274414E0,1.577697754E0
2.650268555E0,-2.852645874E0,-9.632843018E0,2.742996216E0
2.655151367E0,-1.215957642E0,-9.345703125E0,2.929641724E0
2.660034180E0,9.519348145E-1,-9.549102783E0,2.482177734E0
2.664916992E0,2.016738892E0,-1.031001282E1,1.269027710E0
2.669799805E0,1.834884644E0,-1.108767700E1,-2.623901367E-1
2.674682617E0,1.471176147E0,-1.140592957E1,-1.633468628E0
2.679565430E0,4.026794434E-2,-1.106375122E1,-3.602767944E0
2.684448242E0,1.743957520E0,-1.154949951E1,-4.416320801E0
2.689300537E0,1.540573120E0,-1.171699524E1,-4.638854980E0
2.694183350E0,1.574066162E0,-1.215010071E1,-4.425903320E0
2.699066162E0,6.600189209E-1,-1.252816772E1,-4.696289062E0
2.703948975E0,-6.967163086E-1,-1.264062500E1,-4.421112061E0
2.708831787E0,-1.744766235E0,-1.254251099E1,-4.279937744E0
2.713714600E0,-3.558532715E0,-1.235108948E1,-4.686721802E0
2.718597412E0,-4.829116821E0,-1.223384094E1,-4.512039185E0
2.723480225E0,-4.474990845E0,-1.168110657E1,-4.323013306E0
2.728363037E0,-4.604202271E0,-1.075028992E1,-3.937759399E0
2.733245850E0,-5.149765015E0,-1.003483582E1,-3.772659302E0
2.738128662E0,-6.209777832E0,-9.759658813E0,-3.188812256E0
2.743011475E0,-3.587249756E0,-9.910415649E0,-2.124008179E0
2.747894287E0,-9.096832275E-1,-9.697448730E0,-1.714828491E0
2.752777100E0,1.767883301E0,-8.728363037E0,-2.473358154E0
2.757659912E0,3.883148193E0,-7.838226318E0,-3.758300781E0
2.762542725E0,8.075378418E0,-8.005722046E0,-5.461990356E0
2.767395020E0,1.242791748E1,-8.836029053E0,-7.158508301E0
2.772277832E0,1.611047363E1,-9.568237305E0,-8.046234131E0
2.777160645E0,1.868275452E1,-1.012336731E1,-7.816528320E0
2.782043457E0,1.900817871E1,-1.032676697E1,-6.476547241E0
2.786926270E0,1.240638733E1,-9.386383057E0,-5.076751709E0
2.791809082E0,7.142166138E0,-8.465148926E0,-2.076141357E0
2.796691895E0,6.378860474E0,-8.252182007E0,4.171752930E-1
2.801574707E0,7.553741455E0,-8.644607544E0,2.106506348E0
2.806457520E0,7.927017212E0,-8.802536011E0,1.965332031E0
2.811340332E0,8.072982788E0,-8.795364380E0,6.253509521E-1
2.816223145E0,8.649642944E0,-8.962860107E0,-3.676757812E-1
2.821105957E0,8.147155762E0,-9.558670044E0,-9.132385254E-1
2.825988770E0,6.962707520E0,-9.462951660E0,-5.925903320E-1
2.830871582E0,3.902282715E0,-9.776412964E0,-6.617736816E-2
2.835754395E0,-9.766845703E-1,-1.034112549E1,3.910827637E-2
2.840606690E0,-7.992431641E0,-9.852981567E0,6.540679932E-1
2.845489502E0,-1.535993958E1,-9.218887329E0,-7.574462891E-2
2.850372315E0,-1.985604858E1,-9.194961548E0,-7.218017578E-1
2.855255127E0,-2.065763855E1,-1.062107849E1,-1.865570068E0
2.860137940E0,-1.834138489E1,-1.278898621E1,-3.174453735E0
2.865020752E0,-1.271107483E1,-1.342308044E1,-2.746139526E0
2.869903565E0,-5.372299194E0,-1.251380920E1,-6.643829346E-1
2.874786377E0,-7.685089111E-1,-1.094410706E1,1.010589600E0
2.879669190E0,1.294113159E0,-9.525177002E0,1.970123291E0
2.884552002E0,1.392211914E0,-8.977218628E0,2.027542114E0
2.889434815E0,1.479492188E-1,-9.472518921E0,2.262039185E0
2.894317627E0,-1.869201660E0,-1.015208435E1,2.080184937E0
2.899200440E0,-4.041885376E0,-9.953491211E0,1.778686523E0
2.904083252E0,-5.319656372E0,-9.307418823E0,1.218765259E0
2.908966065E0,-5.427322388E0,-8.788177490E0,7.497711182E-1
2.913818359E0,-5.058837891E0,-8.570434570E0,-1.353454590E-2
2.918701172E0,-4.862625122E0,-8.058364868E0,-7.816314697E-1
2.923583984E0,-4.699905396E0,-7.783187866E0,-1.506652832E0
2.928466797E0,-3.434112549E0,-8.067932129E0,-2.140747070E0
2.933349609E0,-2.500900269E0,-8.414901733E0,-2.253219604E0
2.938232422E0,-1.763916016E0,-8.450790405E0,-1.530578613E0
2.943115234E0,-1.511535645E-1,-8.924575806E0,-9.060516357E-1
2.947998047E0,-1.080780029E-1,-8.527359009E0,1.372222900E-1
2.952880859E0,-4.885406494E-1,-8.568038940E0,6.277465820E-1
2.957763672E0,-8.642120361E-1,-8.553680420E0,1.202026367E0
2.962646484E0,-2.311874390E0,-7.790374756E0,1.867233276E0
2.967553038E0,-2.491333008E0,-8.137329102E0,1.843292236E0
2.972435850E0,-1.795028687E0,-8.271331787E0,1.714080811E0
2.977318663E0,-9.886474609E-1,-8.213897705E0,1.525054932E0
2.982201475E0,-3.473663330E-1,-8.972427368E0,1.453262329E0
2.987084288E0,5.223083496E-2,-1.038658142E1,8.406982422E-1
2.991936583E0,4.374847412E-1,-1.195628357E1,-3.437347412E-1
2.996819395E0,6.408691406E-1,-1.254969788E1,-1.063980103E0
3.001702208E0,1.162506104E0,-1.187731934E1,-9.730529785E-1
3.006585020E0,1.308471680E0,-1.127432251E1,-9.826202393E-1
3.011467833E0,1.062011719E0,-1.123124695E1,-2.624099731E0
3.016350645E0,1.832504272E0,-1.066894531E1,-4.035873413E0
3.021233458E0,1.078750610E0,-1.038658142E1,-4.074157715E0
3.026116270E0,-1.641876221E0,-1.038658142E1,-3.093093872E0
3.030999083E0,-3.242675781E0,-9.888885498E0,-2.171859741E0
3.035881895E0,-4.070602417E0,-9.101638794E0,-1.968475342E0
3.040764708E0,-4.264419556E0,-8.197158813E0,-2.140747070E0
3.045647520E0,-4.108886719E0,-7.802337646E0,-2.078536987E0
3.050530333E0,-3.345565796E0,-7.462554932E0,-1.915832520E0
3.055413145E0,-2.041488647E0,-7.058166504E0,-2.083328247E0
3.060295958E0,-1.192031860E0,-7.113204956E0,-2.418319702E0
3.065148253E0,-6.033935547E-1,-7.297454834E0,-1.975646973E0
3.070031065E0,-2.803649902E-1,-7.378799438E0,-1.681335449E0
3.074913878E0,-2.792358398E-3,-7.802337646E0,-9.778442383E-1
3.079796690E0,1.479492188E-1,-8.601531982E0,-3.844146729E-1
3.084679503E0,9.591217041E-1,-9.302642822E0,-2.264862061E-1
3.089562315E0,6.384735107E-1,-1.069287109E1,2.520751953E-1
3.094445128E0,3.441619873E-1,-1.226495361E1,-1.738586426E-1
3.099327940E0,-4.000091553E-1,-1.385618591E1,-6.907043457E-1
3.104210753E0,-1.804595947E0,-1.527990723E1,-5.160217285E-1
3.109093565E0,-2.929214478E0,-1.558380127E1,7.306365967E-1
3.113976378E0,-1.976882935E0,-1.703384399E1,-4.944915771E-1
3.118859190E0,-1.409774780E0,-1.790243530E1,-2.683929443E0
3.123742003E0,-1.747161865E0,-1.860115051E1,-1.978042603E0
3.128624815E0,-2.063018799E0,-1.890982056E1,-8.773345947E-1
3.133507628E0,-3.001007080E0,-1.909646606E1,-2.068969727E0
3.138390440E0,-4.003601074E0,-1.802926636E1,-2.135971069E0
3.143242735E0,-3.843276978E0,-1.651699829E1,-1.487518311E0
3.148125548E0,-1.981658936E0,-1.453573608E1,-5.543060303E-1
3.153008360E0,-1.187240601E0,-1.279855347E1,1.037139893E-1
3.157891173E0,-1.314071655E0,-1.155667114E1,-4.011688232E-1
3.162773985E0,-2.003204346E0,-1.037222290E1,-7.074432373E-1
3.167656798E0,-2.929214478E0,-8.797744751E0,-7.194213867E-1
3.172539610E0,-2.828720093E0,-8.455581665E0,-3.892059326E-1
3.177422423E0,-2.362121582E0,-8.895858765E0,1.731109619E-1
3.182305235E0,-2.225723267E0,-9.245208740E0,6.303405762E-2
3.187188048E0,-2.204193115E0,-9.484497070E0,-5.136260986E-1
3.192070860E0,-2.524826050E0,-9.431854248E0,-8.414459229E-1
3.196953673E0,-2.728225708E0,-9.345703125E0,-9.658813477E-1
3.201836485E0,-2.551147461E0,-9.328964233E0,-8.462371826E-1
3.206719298E0,-2.350158691E0,-9.412704468E0,-9.874114990E-1
3.211602110E0,-2.115661621E0,-1.021669006E1,-2.406356812E0
3.216484923E0,-2.029525757E0,-9.862564087E0,-4.370574951E-1
3.221337218E0,-1.345169067E0,-9.584991455E0,-9.395599365E-1
3.226220030E0,-7.086791992E-1,-9.529953003E0,-1.343948364E0
3.231102843E0,-9.910278320E-1,-9.431854248E0,-1.489898682E0
3.235985655E0,-1.213562012E0,-9.422271729E0,-1.592788696E0
3.240868468E0,-1.235107422E0,-9.343307495E0,-1.619110107E0
3.245751280E0,-1.326034546E0,-9.147109985E0,-1.370269775E0
3.250634093E0,-1.500701904E0,-8.986785889E0,-1.049621582E0
3.255516905E0,-1.598815918E0,-8.857574463E0,-1.657394409E0
3.260399718E0,-1.735198975E0,-8.879104614E0,-1.872756958E0
3.265282530E0,-2.003204346E0,-9.060958862E0,-1.169265747E0
3.270165343E0,-2.122833252E0,-9.259567261E0,-6.500244141E-1
3.275048155E0,-2.297515869E0,-9.489273071E0,-5.758514404E-1
3.279930968E0,-2.364517212E0,-9.884094238E0,-7.816314697E-1
3.284813780E0,-1.778274536E0,-1.028608704E1,-1.315231323E0
3.289696593E0,-1.043670654E0,-1.014251709E1,-1.236267090E0
3.294548888E0,-8.857574463E-1,-9.757278442E0,-1.197982788E0
3.299431700E0,-1.270996094E0,-9.321777344E0,-1.267364502E0
3.304314513E0,-1.639495850E0,-8.723571777E0,-1.037658691E0
3.309197325E0,-1.902694702E0,-8.390975952E0,-1.389404297E0
3.314080138E0,-2.266403198E0,-8.017684937E0,-1.652618408E0
3.318962950E0,-2.587051392E0,-7.685089111E0,-1.702865601E0
3.323845763E0,-2.778472900E0,-7.321380615E0,-1.631072998E0
3.328728575E0,-2.759323120E0,-6.627456665E0,-1.712432861E0
3.333611388E0,-2.311874390E0,-5.526763916E0,-1.492294312E0
3.338494200E0,-1.984054565E0,-4.746704102E0,-7.935943604E-1
3.343377013E0,-1.687347412E0,-4.143707275E0,-3.461303711E-1
3.348259825E0,-1.617950439E0,-3.746505737E0,-3.700561523E-1
3.353142638E0,-1.711273193E0,-3.784790039E0,-9.156188965E-1
3.358025450E0,-1.584457397E0,-3.978607178E0,-1.650222778E0
3.362908263E0,-1.546173096E0,-4.330352783E0,-2.332183838E0
3.367791075E0,-1.672988892E0,-5.191772461E0,-1.212341309E0
3.372643370E0,-1.223144531E0,-6.342712402E0,1.324310303E-1
3.377526182E0,-1.136993408E0,-6.945709229E0,-7.218017578E-1
3.382408995E0,-1.108276367E0,-7.589370728E0,-1.389404297E0
3.387291807E0,-1.713668823E0,-7.991363525E0,-1.590408325E0
3.392174620E0,-1.917053223E0,-8.524963379E0,-1.961288452E0
3.397057432E0,-2.177871704E0,-8.943710327E0,-2.770065308E0
3.401940245E0,-1.527023315E0,-9.709411621E0,-2.698272705E0
3.406823057E0,1.455535889E-1,-1.256645203E1,-2.449432373E0
3.411705870E0,4.685821533E-1,-1.533015442E1,-2.289108276E0
3.416588682E0,3.585205078E-1,-1.693095398E1,-1.320007324E0
3.421471495E0,6.504364014E-1,-1.699076843E1,-4.418487549E-1
3.426354307E0,6.623992920E-1,-1.566514587E1,2.329254150E-1
3.431237120E0,-2.061920166E-1,-1.386575317E1,5.918579102E-1
3.436119932E0,-8.833618164E-1,-1.210942078E1,1.276397705E-1
3.441002745E0,-1.483963013E0,-1.149206543E1,-8.053588867E-2
3.445855040E0,-1.838088989E0,-1.210702515E1,-1.571655273E-3
3.450737852E0,-2.197021484E0,-1.320054626E1,-3.030700684E-1
3.455620665E0,-2.649261475E0,-1.459794617E1,-3.987731934E-1
3.460503477E0,-2.878967285E0,-1.571061707E1,-8.151245117E-1
3.465386290E0,-2.938796997E0,-1.639974976E1,-1.243438721E0
3.470269102E0,-2.874191284E0,-1.648828125E1,-1.803359985E0
3.475151915E0,-2.735397339E0,-1.537083435E1,-2.341751099E0
3.480034727E0,-2.534408569E0,-1.346376038E1,-2.253219604E0
3.484917540E0,-2.417160034E0,-1.119775391E1,-2.246032715E0
3.489800352E0,-2.156341553E0,-9.338531494E0,-1.882324219E0
3.494683165E0,-1.802200317E0,-7.807128906E0,-2.188613892E0
3.499565977E0,-1.491134644E0,-7.091674805E0,-2.229278564E0
3.504448790E0,-1.457641602E0,-7.261566162E0,-1.695693970E0
3.509331602E0,-1.134597778E0,-7.603729248E0,-1.449218750E0
3.514214415E0,-8.713989258E-1,-8.271331787E0,-1.231475830E0
3.519066710E0,-1.153747559E0,-9.666351318E0,-1.178833008E0
3.523949522E0,-1.220748901E0,-1.178399658E1,-1.092697144E0
3.528832335E0,-1.208786011E0,-1.375328064E1,-1.114227295E0
3.533715147E0,-1.192031860E0,-1.495448303E1,-1.288909912E0
3.538597960E0,-1.388244629E0,-1.545458984E1,-1.195587158E0
3.543480772E0,-1.811767578E0,-1.493534851E1,-1.071166992E0
3.548363585E0,-1.945770264E0,-1.343264771E1,-8.055572510E-1
3.553246397E0,-1.491134644E0,-1.129107666E1,-6.691589355E-1
3.558129210E0,-1.050857544E0,-9.769241333E0,-8.294830322E-1
3.563012022E0,-9.096832275E-1,-9.221282959E0,-1.102264404E0
3.567894835E0,-9.503631592E-1,-9.276321411E0,-1.394195557E0
3.572777647E0,-9.527435303E-1,-9.474914551E0,-1.482727051E0
3.577660460E0,-9.647064209E-1,-9.604125977E0,-1.537765503E0
3.582543272E0,-1.060424805E0,-9.783599854E0,-1.377441406E0
3.587426085E0,-1.223144531E0,-9.843414307E0,-1.456405640E0
3.592308897E0,-1.273391724E0,-9.821884155E0,-1.470764160E0
3.597161192E0,-1.345169067E0,-9.864944458E0,-1.358291626E0
3.602044005E0,-1.505493164E0,-9.912811279E0,-1.327194214E0
3.606926817E0,-1.627517700E0,-9.948699951E0,-1.291305542E0
3.611809630E0,-1.689743042E0,-1.007073975E1,-1.207550049E0
3.616692442E0,-1.773483276E0,-1.020712280E1,-1.162094116E0
3.621575255E0,-1.871597290E0,-1.019755554E1,-1.255401611E0
3.626458067E0,-1.902694702E0,-1.007073975E1,-1.181228638E0
3.631340880E0,-1.634704590E0,-9.651992798E0,-7.696685791E-1
3.636223692E0,-1.359527588E0,-9.218887329E0,-3.748474121E-1
3.641106505E0,-1.187240601E0,-9.388778687E0,-9.658813477E-1
3.645989317E0,-1.058029175E0,-9.702239990E0,-1.358291626E0
3.650872130E0,-1.115463257E0,-9.927169800E0,-1.549728394E0
3.655754942E0,-1.096313477E0,-1.006834412E1,-1.674148560E0
3.660637755E0,-9.503631592E-1,-1.021669006E1,-2.064178467E0
3.665520567E0,-7.493591309E-1,-1.039137268E1,-2.121612549E0
3.670372862E0,-6.895446777E-1,-1.046794128E1,-1.841644287E0
3.675255675E0,-1.014968872E0,-1.010183716E1,-1.334365845E0
3.680138487E0,-2.465011597E0,-8.012908936E0,-1.068771362E0
3.685021300E0,-2.381271362E0,-6.373825073E0,-9.228057861E-1
3.689904112E0,-2.041488647E0,-5.916793823E0,-1.128585815E0
3.694786925E0,-3.984451294E0,-3.794357300E0,-1.573654175E0
3.699669737E0,-3.075180054E0,-5.091262817E0,-1.834472656E0
3.704552550E0,-1.062820435E0,-7.850189209E0,-1.346328735E0
3.709435362E0,-6.823577881E-1,-9.273925781E0,-1.358291626E0
3.714318175E0,-5.363922119E-1,-1.048947144E1,-1.499481201E0
3.719200987E0,-6.823577881E-1,-1.146574402E1,-1.652618408E0
3.724083800E0,-8.235321045E-1,-1.223384094E1,-1.655014038E0
3.728966612E0,-9.288177490E-1,-1.287272644E1,-1.446838379E0
3.733849425E0,-9.671020508E-1,-1.334411621E1,-1.166870117E0
3.738732237E0,-9.718933105E-1,-1.369586182E1,-9.204101562E-1
3.743615050E0,-9.144592285E-1,-1.383703613E1,-7.313842773E-1
3.748467345E0,-8.283233643E-1,-1.381550598E1,-6.404571533E-1
3.753350157E0,-8.067932129E-1,-1.357382202E1,-7.648773193E-1
3.758232970E0,-7.373962402E-1,-1.308090210E1,-1.071166992E0
3.763115782E0,-7.565307617E-1,-1.226495361E1,-1.322402954E0
3.767998595E0,-1.058029175E0,-1.122647095E1,-1.420516968E0
3.772881407E0,-1.486343384E0,-1.035786438E1,-1.509048462E0
3.777764220E0,-1.775878906E0,-9.845809937E0,-1.597579956E0
3.782647032E0,-1.864410400E0,-9.620880127E0,-1.650222778E0
3.787529845E0,-1.852447510E0,-9.558670044E0,-1.623901367E0
3.792412657E0,-1.830917358E0,-9.611312866E0,-1.530578613E0
3.797295470E0,-1.720840454E0,-9.702239990E0,-1.391799927E0
3.802178282E0,-1.677780151E0,-9.809921265E0,-1.315231323E0
3.807061095E0,-1.665817261E0,-9.922378540E0,-1.276947021E0
3.811943907E0,-1.656234741E0,-9.989379883E0,-1.267364502E0
3.816826720E0,-1.639495850E0,-9.994155884E0,-1.243438721E0
3.821709532E0,-1.629913330E0,-9.970230103E0,-1.219512939E0
3.826561827E0,-1.610778809E0,-9.972625732E0,-1.224304199E0
3.831444640E0,-1.605987549E0,-1.000851440E1,-1.243438721E0
3.836327452E0,-1.596420288E0,-1.002526855E1,-1.264984131E0
3.841210265E0,-1.613174438E0,-1.003005981E1,-1.312835693E0
3.846093077E0,-1.591629028E0,-1.003723145E1,-1.336761475E0
3.850975890E0,-1.603591919E0,-1.008270264E1,-1.367874146E0
3.855858702E0,-1.641876221E0,-1.008747864E1,-1.365478516E0
3.860741515E0,-1.653839111E0,-1.004441833E1,-1.339157104E0
3.865624327E0,-1.680160522E0,-9.998947144E0,-1.329589844E0
3.870507140E0,-1.670593262E0,-9.979812622E0,-1.343948364E0
3.875389952E0,-1.696914673E0,-9.996551514E0,-1.331970215E0
3.880272765E0,-1.687347412E0,-1.004202271E1,-1.288909912E0
3.885155577E0,-1.682556152E0,-1.006834412E1,-1.267364502E0
3.890038390E0,-1.637100220E0,-1.007791138E1,-1.250625610E0
3.894921202E0,-1.627517700E0,-1.007791138E1,-1.241043091E0
3.899773497E0,-1.608383179E0,-1.008747864E1,-1.241043091E0
3.904656309E0,-1.594024658E0,-1.011140442E1,-1.212341309E0
3.909539122E0,-1.565307617E0,-1.014491272E1,-1.253021240E0
3.914421934E0,-1.538986206E0,-1.015208435E1,-1.276947021E0
3.919304747E0,-1.527023315E0,-1.017840576E1,-1.291305542E0
3.924187559E0,-1.510269165E0,-1.017362976E1,-1.303268433E0
3.929070372E0,-1.464813232E0,-1.017362976E1,-1.327194214E0
3.933953184E0,-1.460021973E0,-1.017362976E1,-1.298477173E0
3.938835997E0,-1.450454712E0,-1.017123413E1,-1.291305542E0
3.943718809E0,-1.471984863E0,-1.014491272E1,-1.303268433E0
3.948601622E0,-1.464813232E0,-1.010183716E1,-1.281723022E0
3.953484434E0,-1.486343384E0,-1.008987427E1,-1.284118652E0
3.958367247E0,-1.495925903E0,-1.005638123E1,-1.260192871E0
3.963250059E0,-1.495925903E0,-1.003962708E1,-1.229080200E0
3.968132872E0,-1.498306274E0,-1.002526855E1,-1.226699829E0
3.972985167E0,-1.488739014E0,-1.000373840E1,-1.205154419E0
3.977867979E0,-1.498306274E0,-1.001570129E1,-1.202758789E0
3.982750792E0,-1.527023315E0,-1.002766418E1,-1.166870117E0
3.987633604E0,-1.531814575E0,-1.003005981E1,-1.162094116E0
3.992516417E0,-1.517456055E0,-1.006355286E1,-1.162094116E0
3.997399229E0,-1.493530273E0,-1.007312012E1,-1.145339966E0
4.002282042E0,-1.469604492E0,-1.009226990E1,-1.135772705E0
4.007164854E0,-1.443283081E0,-1.007073975E1,-1.147735596E0
4.012047667E0,-1.436096191E0,-1.008030701E1,-1.162094116E0
4.016930479E0,-1.455245972E0,-1.007073975E1,-1.171661377E0
4.021813292E0,-1.479171753E0,-1.006115723E1,-1.190795898E0
4.026696104E0,-1.505493164E0,-1.006355286E1,-1.200378418E0
4.031578917E0,-1.515060425E0,-1.005638123E1,-1.195587158E0
4.036461729E0,-1.529418945E0,-1.004679871E1,-1.224304199E0
4.041344542E0,-1.562911987E0,-1.004441833E1,-1.233871460E0
4.046227354E0,-1.589233398E0,-1.004441833E1,-1.255401611E0
4.051079649E0,-1.610778809E0,-1.005158997E1,-1.264984131E0
4.055962462E0,-1.598815918E0,-1.006834412E1,-1.272155762E0
4.060845274E0,-1.605987549E0,-1.007073975E1,-1.279342651E0
4.065728087E0,-1.608383179E0,-1.007551575E1,-1.267364502E0
4.070610899E0,-1.615554810E0,-1.008270264E1,-1.250625610E0
4.075493712E0,-1.620346069E0,-1.009944153E1,-1.260192871E0
4.080376524E0,-1.622741699E0,-1.012336731E1,-1.248229980E0
4.085259337E0,-1.608383179E0,-1.015208435E1,-1.233871460E0
4.090142149E0,-1.586853027E0,-1.016166687E1,-1.200378418E0
4.095024962E0,-1.577270508E0,-1.018559265E1,-1.188415527E0
4.099907774E0,-1.560531616E0,-1.019276428E1,-1.200378418E0
4.104790587E0,-1.555740356E0,-1.021429443E1,-1.217117310E0
4.109673399E0,-1.546173096E0,-1.020233154E1,-1.221908569E0
4.114556212E0,-1.560531616E0,-1.021669006E1,-1.250625610E0
4.119408507E0,-1.555740356E0,-1.019515991E1,-1.262588501E0
4.124291319E0,-1.548568726E0,-1.016644287E1,-1.276947021E0
4.129174132E0,-1.550949097E0,-1.013772583E1,-1.260192871E0
4.134056944E0,-1.534210205E0,-1.010662842E1,-1.264984131E0
4.138939757E0,-1.519851685E0,-1.004679871E1,-1.241043091E0
4.143822569E0,-1.512664795E0,-1.001809692E1,-1.264984131E0
4.148705382E0,-1.500701904E0,-1.001330566E1,-1.267364502E0
4.153588194E0,-1.500701904E0,-9.960662842E0,-1.267364502E0
4.158471007E0,-1.500701904E0,-9.931945801E0,-1.284118652E0
4.163353819E0,-1.503097534E0,-9.941513062E0,-1.257797241E0
4.168236632E0,-1.486343384E0,-9.929550171E0,-1.238662720E0
4.173119444E0,-1.483963013E0,-9.946304321E0,-1.219512939E0
4.178002257E0,-1.495925903E0,-9.958267212E0,-1.176437378E0
4.182885069E0,-1.479171753E0,-1.000134277E1,-1.150115967E0
4.187767882E0,-1.467208862E0,-1.004679871E1,-1.130981445E0
4.192650694E0,-1.460021973E0,-1.006834412E1,-1.123794556E0
4.197533507E0,-1.409774780E0,-1.012336731E1,-1.102264404E0
4.202385802E0,-1.400207520E0,-1.014730835E1,-1.119018555E0
4.207268614E0,-1.378677368E0,-1.017840576E1,-1.150115967E0
4.212151427E0,-1.359527588E0,-1.020951843E1,-1.178833008E0
4.217034239E0,-1.357131958E0,-1.021908569E1,-1.207550049E0
4.221917052E0,-1.366714478E0,-1.021908569E1,-1.207550049E0
4.226799864E0,-1.366714478E0,-1.019515991E1,-1.248229980E0
4.231682677E0,-1.412170410E0,-1.018319702E1,-1.253021240E0
4.236565489E0,-1.464813232E0,-1.014730835E1,-1.267364502E0
4.241448302E0,-1.467208862E0,-1.011619568E1,-1.274551392E0
4.246331114E0,-1.507888794E0,-1.009944153E1,-1.286514282E0
4.251213927E0,-1.527023315E0,-1.008030701E1,-1.264984131E0
4.256096739E0,-1.558135986E0,-1.007791138E1,-1.264984131E0
4.260979552E0,-1.562911987E0,-1.006594849E1,-1.245834351E0
4.265862364E0,-1.589233398E0,-1.002526855E1,-1.229080200E0
4.270745177E0,-1.603591919E0,-1.000851440E1,-1.205154419E0
4.275597472E0,-1.644271851E0,-9.994155884E0,-1.183624268E0
4.280480284E0,-1.644271851E0,-9.998947144E0,-1.159698486E0
4.285363097E0,-1.665817261E0,-1.001091003E1,-1.133377075E0
4.290245909E0,-1.680160522E0,-1.003005981E1,-1.109451294E0
4.295128722E0,-1.701705933E0,-1.005158997E1,-1.111831665E0
4.300011534E0,-1.699310303E0,-1.010902405E1,-1.116622925E0
4.304894347E0,-1.675384521E0,-1.014491272E1,-1.123794556E0
4.309777159E0,-1.639495850E0,-1.016883850E1,-1.166870117E0
4.314659972E0,-1.603591919E0,-1.018080139E1,-1.166870117E0
4.319542784E0,-1.555740356E0,-1.016883850E1,-1.193191528E0
4.324425597E0,-1.574890137E0,-1.014968872E1,-1.224304199E0
4.329308409E0,-1.570098877E0,-1.012576294E1,-1.255401611E0
4.334191222E0,-1.603591919E0,-1.010423279E1,-1.267364502E0
4.339074034E0,-1.637100220E0,-1.005876160E1,-1.284118652E0
4.343956847E0,-1.661026001E0,-1.004441833E1,-1.286514282E0
4.348839659E0,-1.706481934E0,-1.003005981E1,-1.315231323E0
4.353691954E0,-1.701705933E0,-9.986984253E0,-1.322402954E0
4.358574766E0,-1.725631714E0,-9.970230103E0,-1.322402954E0
4.363457579E0,-1.749557495E0,-9.943908691E0,-1.315231323E0
4.368340391E0,-1.754348755E0,-9.946304321E0,-1.296081543E0
4.373223204E0,-1.763916016E0,-9.953491211E0,-1.284118652E0
4.378106016E0,-1.749557495E0,-9.967834473E0,-1.241043091E0
4.382988829E0,-1.783065796E0,-9.989379883E0,-1.209945679E0
4.387871641E0,-1.744766235E0,-1.003723145E1,-1.154907227E0
4.392754454E0,-1.713668823E0,-1.008270264E1,-1.121414185E0
4.397637266E0,-1.668197632E0,-1.009226990E1,-1.111831665E0
4.402520079E0,-1.632308960E0,-1.010662842E1,-1.104660034E0
4.407402891E0,-1.608383179E0,-1.009944153E1,-1.099868774E0
4.412285704E0,-1.579666138E0,-1.011859131E1,-1.135772705E0
4.417168516E0,-1.579666138E0,-1.010902405E1,-1.162094116E0
4.422051329E0,-1.586853027E0,-1.011140442E1,-1.197982788E0
4.426934141E0,-1.574890137E0,-1.010902405E1,-1.224304199E0
4.431786436E0,-1.586853027E0,-1.011859131E1,-1.214721680E0
4.436669249E0,-1.591629028E0,-1.008508301E1,-1.229080200E0
4.441552061E0,-1.574890137E0,-1.009226990E1,-1.224304199E0
4.446434874E0,-1.589233398E0,-1.006115723E1,-1.231475830E0
4.451317686E0,-1.603591919E0,-1.006834412E1,-1.229080200E0
4.456200499E0,-1.577270508E0,-1.008030701E1,-1.217117310E0
4.461083311E0,-1.572494507E0,-1.008508301E1,-1.245834351E0
4.465966124E0,-1.558135986E0,-1.009226990E1,-1.241043091E0
4.470848936E0,-1.531814575E0,-1.009466553E1,-1.236267090E0
4.475731749E0,-1.493530273E0,-1.010423279E1,-1.243438721E0
4.480614561E0,-1.474380493E0,-1.009226990E1,-1.233871460E0
4.485497374E0,-1.419342041E0,-1.009466553E1,-1.276947021E0
4.490380186E0,-1.395416260E0,-1.006355286E1,-1.279342651E0
4.495262999E0,-1.421737671E0,-1.007073975E1,-1.300872803E0
4.500145811E0,-1.416961670E0,-1.005876160E1,-1.300872803E0
4.504998106E0,-1.428924561E0,-1.003962708E1,-1.315231323E0
4.509880919E0,-1.450454712E0,-1.005158997E1,-1.303268433E0
4.514763731E0,-1.479171753E0,-1.002766418E1,-1.293685913E0
4.519646544E0,-1.495925903E0,-1.003483582E1,-1.279342651E0
4.524529356E0,-1.510269165E0,-1.004441833E1,-1.281723022E0
4.529412169E0,-1.543777466E0,-1.005398560E1,-1.272155762E0
4.534294981E0,-1.560531616E0,-1.009704590E1,-1.243438721E0
4.539177794E0,-1.567703247E0,-1.014251709E1,-1.221908569E0
4.544060606E0,-1.546173096E0,-1.017362976E1,-1.212341309E0
4.548943419E0,-1.522247314E0,-1.018080139E1,-1.202758789E0
4.553826231E0,-1.538986206E0,-1.016644287E1,-1.224304199E0
4.558709044E0,-1.543777466E0,-1.015927124E1,-1.221908569E0
4.563591856E0,-1.548568726E0,-1.014491272E1,-1.236267090E0
4.568474669E0,-1.591629028E0,-1.012336731E1,-1.243438721E0
4.573357481E0,-1.637100220E0,-1.012098694E1,-1.229080200E0
4.578240294E0,-1.670593262E0,-1.011140442E1,-1.214721680E0
4.583092589E0,-1.689743042E0,-1.008747864E1,-1.197982788E0
4.587975401E0,-1.694519043E0,-1.009466553E1,-1.193191528E0
4.592858214E0,-1.713668823E0,-1.007791138E1,-1.209945679E0
4.597741026E0,-1.735198975E0,-1.007551575E1,-1.214721680E0
4.602623839E0,-1.730422974E0,-1.005876160E1,-1.209945679E0
4.607506651E0,-1.747161865E0,-1.005876160E1,-1.212341309E0
4.612389464E0,-1.739990234E0,-1.006115723E1,-1.226699829E0
4.617272276E0,-1.725631714E0,-1.005638123E1,-1.236267090E0
4.622155089E0,-1.687347412E0,-1.005876160E1,-1.219512939E0
4.627037901E0,-1.663421631E0,-1.008270264E1,-1.221908569E0
4.631920714E0,-1.627517700E0,-1.007312012E1,-1.207550049E0
4.636803526E0,-1.579666138E0,-1.008508301E1,-1.197982788E0
4.641686339E0,-1.534210205E0,-1.007791138E1,-1.219512939E0
4.646569151E0,-1.512664795E0,-1.007312012E1,-1.236267090E0
4.651451964E0,-1.483963013E0,-1.006355286E1,-1.253021240E0
4.656304259E0,-1.476776123E0,-1.005158997E1,-1.284118652E0
4.661187071E0,-1.491134644E0,-1.003962708E1,-1.305664062E0
4.666069884E0,-1.507888794E0,-1.003483582E1,-1.317626953E0
4.670952696E0,-1.543777466E0,-1.001330566E1,-1.331970215E0
4.675835509E0,-1.558135986E0,-1.000851440E1,-1.327194214E0
4.680718321E0,-1.565307617E0,-1.000373840E1,-1.312835693E0
4.685601134E0,-1.584457397E0,-1.001809692E1,-1.305664062E0
4.690483946E0,-1.603591919E0,-1.001570129E1,-1.284118652E0
4.695366759E0,-1.605987549E0,-1.003962708E1,-1.262588501E0
4.700249571E0,-1.613174438E0,-1.006355286E1,-1.250625610E0
4.705132384E0,-1.586853027E0,-1.007312012E1,-1.243438721E0
4.710015196E0,-1.584457397E0,-1.010423279E1,-1.197982788E0
4.714898009E0,-1.519851685E0,-1.012336731E1,-1.181228638E0
4.719780821E0,-1.488739014E0,-1.013055420E1,-1.178833008E0
4.724663634E0,-1.464813232E0,-1.013294983E1,-1.169265747E0
4.729515929E0,-1.455245972E0,-1.011619568E1,-1.183624268E0
4.734398741E0,-1.426528931E0,-1.013534546E1,-1.226699829E0
4.739281554E0,-1.471984863E0,-1.009226990E1,-1.250625610E0
4.744164366E0,-1.483963013E0,-1.008508301E1,-1.276947021E0
4.749047179E0,-1.505493164E0,-1.007073975E1,-1.276947021E0
4.753929991E0,-1.512664795E0,-1.002287292E1,-1.298477173E0
4.758812804E0,-1.522247314E0,-1.000851440E1,-1.324798584E0
4.763695616E0,-1.536590576E0,-9.998947144E0,-1.327194214E0
4.768578429E0,-1.538986206E0,-9.994155884E0,-1.334365845E0
4.773461241E0,-1.558135986E0,-9.989379883E0,-1.341552734E0
4.778344054E0,-1.565307617E0,-1.000373840E1,-1.331970215E0
4.783226866E0,-1.546173096E0,-1.001091003E1,-1.351119995E0
4.788109679E0,-1.505493164E0,-1.001330566E1,-1.341552734E0
4.792992491E0,-1.464813232E0,-1.000373840E1,-1.329589844E0
4.797875304E0,-1.438491821E0,-1.002287292E1,-1.327194214E0
4.802758116E0,-1.416961670E0,-1.003005981E1,-1.315231323E0
4.807610411E0,-1.402603149E0,-1.002526855E1,-1.315231323E0
4.812493224E0,-1.400207520E0,-1.003962708E1,-1.305664062E0
4.817376036E0,-1.395416260E0,-1.006355286E1,-1.308044434E0
4.822258849E0,-1.388244629E0,-1.008987427E1,-1.322402954E0
4.827141661E0,-1.395416260E0,-1.009226990E1,-1.331970215E0
4.832024474E0,-1.416961670E0,-1.008747864E1,-1.334365845E0
4.836907286E0,-1.440887451E0,-1.009226990E1,-1.327194214E0
4.841790099E0,-1.481567383E0,-1.007791138E1,-1.320007324E0
4.846672911E0,-1.510269165E0,-1.009704590E1,-1.320007324E0
4.851555724E0,-1.534210205E0,-1.010183716E1,-1.329589844E0
4.856438536E0,-1.562911987E0,-1.013772583E1,-1.324798584E0
4.861321349E0,-1.558135986E0,-1.016883850E1,-1.296081543E0
4.866204161E0,-1.550949097E0,-1.019755554E1,-1.303268433E0
4.871086974E0,-1.538986206E0,-1.021429443E1,-1.293685913E0
4.875969786E0,-1.517456055E0,-1.021908569E1,-1.298477173E0
4.880852599E0,-1.529418945E0,-1.021429443E1,-1.303268433E0
4.885704893E0,-1.534210205E0,-1.020951843E1,-1.296081543E0
4.890587706E0,-1.524627686E0,-1.020472717E1,-1.298477173E0
4.895470518E0,-1.522247314E0,-1.018080139E1,-1.315231323E0
4.900353331E0,-1.531814575E0,-1.016166687E1,-1.303268433E0
4.905236143E0,-1.519851685E0,-1.014251709E1,-1.298477173E0
4.910118956E0,-1.534210205E0,-1.012815857E1,-1.315231323E0
4.915001768E0,-1.534210205E0,-1.008987427E1,-1.331970215E0
4.919884581E0,-1.565307617E0,-1.007073975E1,-1.355911255E0
4.924767393E0,-1.582061768E0,-1.005638123E1,-1.363082886E0
4.929650206E0,-1.591629028E0,-1.004441833E1,-1.387008667E0
4.934533018E0,-1.589233398E0,-1.005638123E1,-1.406158447E0
4.939415831E0,-1.555740356E0,-1.007312012E1,-1.410934448E0
4.944298643E0,-1.536590576E0,-1.010662842E1,-1.403762817E0
4.949181456E0,-1.515060425E0,-1.011619568E1,-1.396591187E0
4.954064268E0,-1.507888794E0,-1.013055420E1,-1.408554077E0
4.958916563E0,-1.486343384E0,-1.011380005E1,-1.406158447E0
4.963799376E0,-1.488739014E0,-1.008030701E1,-1.422897339E0
4.968682188E0,-1.491134644E0,-1.004441833E1,-1.422897339E0
4.973565001E0,-1.515060425E0,-1.000613403E1,-1.415725708E0
4.978447813E0,-1.546173096E0,-9.989379883E0,-1.401367188E0
4.983330626E0,-1.572494507E0,-9.970230103E0,-1.384613037E0
4.988213438E0,-1.613174438E0,-9.958267212E0,-1.370269775E0
4.993096251E0,-1.610778809E0,-9.989379883E0,-1.348724365E0
4.997979063E0,-1.629913330E0,-1.001330566E1,-1.331970215E0
5.002861876E0,-1.629913330E0,-1.004919434E1,-1.315231323E0
5.007744688E0,-1.594024658E0,-1.007791138E1,-1.281723022E0
5.012627501E0,-1.570098877E0,-1.010902405E1,-1.267364502E0
5.017510313E0,-1.534210205E0,-1.012815857E1,-1.276947021E0
5.022393126E0,-1.515060425E0,-1.014251709E1,-1.291305542E0
5.027275938E0,-1.534210205E0,-1.013534546E1,-1.310440063E0
5.032158751E0,-1.548568726E0,-1.013055420E1,-1.336761475E0
5.037011046E0,-1.558135986E0,-1.011859131E1,-1.324798584E0
5.041893858E0,-1.594024658E0,-1.008747864E1,-1.346328735E0
5.046776671E0,-1.617950439E0,-1.003962708E1,-1.370269775E0
5.051659483E0,-1.634704590E0,-1.000373840E1,-1.365478516E0
5.056542296E0,-1.644271851E0,-9.975021362E0,-1.358291626E0
5.061425108E0,-1.646667480E0,-9.955871582E0,-1.343948364E0
5.066307921E0,-1.672988892E0,-9.941513062E0,-1.336761475E0
5.071190733E0,-1.692138672E0,-9.919982910E0,-1.303268433E0
5.076073546E0,-1.720840454E0,-9.929550171E0,-1.293685913E0
5.080956358E0,-1.728027344E0,-9.963058472E0,-1.262588501E0
5.085839171E0,-1.692138672E0,-1.001330566E1,-1.233871460E0
5.090721983E0,-1.641876221E0,-1.006594849E1,-1.193191528E0
5.095604796E0,-1.591629028E0,-1.009944153E1,-1.178833008E0
5.100487608E0,-1.553344727E0,-1.013294983E1,-1.171661377E0
5.105370421E0,-1.524627686E0,-1.013772583E1,-1.166870117E0
5.110253233E0,-1.503097534E0,-1.014730835E1,-1.195587158E0
5.115105528E0,-1.507888794E0,-1.014491272E1,-1.212341309E0
5.119988341E0,-1.515060425E0,-1.014012146E1,-1.241043091E0
5.124871153E0,-1.519851685E0,-1.013055420E1,-1.262588501E0
5.129753966E0,-1.510269165E0,-1.012576294E1,-1.262588501E0
5.134636778E0,-1.522247314E0,-1.012336731E1,-1.264984131E0
5.139519591E0,-1.517456055E0,-1.008987427E1,-1.284118652E0
5.144402403E0,-1.536590576E0,-1.011140442E1,-1.279342651E0
5.149285216E0,-1.550949097E0,-1.008747864E1,-1.281723022E0
5.154168028E0,-1.550949097E0,-1.011140442E1,-1.293685913E0
5.159050841E0,-1.534210205E0,-1.013294983E1,-1.288909912E0
5.163933653E0,-1.510269165E0,-1.014251709E1,-1.288909912E0
5.168816466E0,-1.479171753E0,-1.014491272E1,-1.286514282E0
5.173699278E0,-1.440887451E0,-1.014012146E1,-1.284118652E0
5.178582091E0,-1.414566040E0,-1.013294983E1,-1.272155762E0
5.183464903E0,-1.393035889E0,-1.014012146E1,-1.303268433E0
5.188317198E0,-1.354736328E0,-1.011859131E1,-1.315231323E0
5.193200011E0,-1.359527588E0,-1.010902405E1,-1.324798584E0
5.198082823E0,-1.371490479E0,-1.009226990E1,-1.327194214E0
5.202965636E0,-1.395416260E0,-1.007551575E1,-1.331970215E0
5.207848448E0,-1.424133301E0,-1.006355286E1,-1.339157104E0
5.212731261E0,-1.448059082E0,-1.005158997E1,-1.358291626E0
5.217614073E0,-1.479171753E0,-1.004441833E1,-1.367874146E0
5.222496886E0,-1.498306274E0,-1.004919434E1,-1.355911255E0
5.227379698E0,-1.527023315E0,-1.003483582E1,-1.346328735E0
5.232262511E0,-1.553344727E0,-1.002287292E1,-1.341552734E0
5.237145323E0,-1.562911987E0,-1.004202271E1,-1.315231323E0
5.242028136E0,-1.562911987E0,-1.003244019E1,-1.312835693E0
5.246910948E0,-1.558135986E0,-1.003483582E1,-1.281723022E0
5.251793761E0,-1.574890137E0,-1.004202271E1,-1.269760132E0
5.256676573E0,-1.572494507E0,-1.005638123E1,-1.257797241E0
5.261559386E0,-1.541381836E0,-1.008030701E1,-1.276947021E0
5.266411681E0,-1.546173096E0,-1.008270264E1,-1.276947021E0
5.271294493E0,-1.531814575E0,-1.010423279E1,-1.291305542E0
5.276177306E0,-1.546173096E0,-1.009226990E1,-1.288909912E0
5.281060118E0,-1.548568726E0,-1.010902405E1,-1.317626953E0
5.285942931E0,-1.548568726E0,-1.010183716E1,-1.315231323E0
5.290825743E0,-1.546173096E0,-1.008030701E1,-1.341552734E0
5.295708556E0,-1.570098877E0,-1.007073975E1,-1.339157104E0
5.300591368E0,-1.577270508E0,-1.007551575E1,-1.331970215E0
5.305474181E0,-1.594024658E0,-1.007073975E1,-1.331970215E0
5.310356993E0,-1.586853027E0,-1.008270264E1,-1.303268433E0
5.315239806E0,-1.558135986E0,-1.010662842E1,-1.308044434E0
5.320122618E0,-1.519851685E0,-1.010902405E1,-1.300872803E0
5.325005431E0,-1.512664795E0,-1.011859131E1,-1.281723022E0
5.329888243E0,-1.481567383E0,-1.013055420E1,-1.267364502E0
5.334771056E0,-1.462417603E0,-1.009944153E1,-1.245834351E0
5.339623350E0,-1.450454712E0,-1.009226990E1,-1.243438721E0
5.344506163E0,-1.443283081E0,-1.004202271E1,-1.236267090E0
5.349388975E0,-1.440887451E0,-1.002287292E1,-1.193191528E0
5.354271788E0,-1.481567383E0,-9.986984253E0,-1.224304199E0
5.359154600E0,-1.495925903E0,-1.000373840E1,-1.286514282E0
5.364037413E0,-1.519851685E0,-1.002526855E1,-1.308044434E0
5.368920225E0,-1.538986206E0,-1.004679871E1,-1.262588501E0
5.373803038E0,-1.565307617E0,-1.004919434E1,-1.250625610E0
5.378685850E0,-1.591629028E0,-1.005876160E1,-1.276947021E0
5.383568663E0,-1.649063110E0,-1.004202271E1,-1.286514282E0
5.388451475E0,-1.684951782E0,-1.001091003E1,-1.264984131E0
5.393334288E0,-1.706481934E0,-1.000851440E1,-1.281723022E0
5.398217100E0,-1.737594604E0,-9.960662842E0,-1.272155762E0
5.403099913E0,-1.754348755E0,-9.948699951E0,-1.276947021E0
5.407982725E0,-1.730422974E0,-9.975021362E0,-1.293685913E0
5.412865538E0,-1.716064453E0,-1.002287292E1,-1.300872803E0
5.417717833E0,-1.694519043E0,-1.008270264E1,-1.339157104E0
5.422600645E0,-1.627517700E0,-1.014012146E1,-1.351119995E0
5.427483458E0,-1.586853027E0,-1.026216125E1,-1.358291626E0
5.432366270E0,-1.656234741E0,-1.011859131E1,-1.243438721E0
5.437249083E0,-1.519851685E0,-1.000613403E1,-1.243438721E0
5.442131895E0,-1.457641602E0,-1.007073975E1,-1.272155762E0
5.447014708E0,-1.400207520E0,-1.014251709E1,-1.296081543E0
5.451897520E0,-1.388244629E0,-1.020233154E1,-1.315231323E0
5.456780333E0,-1.400207520E0,-1.015927124E1,-1.322402954E0
5.461663145E0,-1.438491821E0,-1.011619568E1,-1.346328735E0
5.466545958E0,-1.503097534E0,-1.006355286E1,-1.367874146E0
5.471428770E0,-1.543777466E0,-9.991775513E0,-1.353515625E0
5.476311583E0,-1.603591919E0,-9.917587280E0,-1.305664062E0
5.481194395E0,-1.653839111E0,-9.862564087E0,-1.300872803E0
5.486077208E0,-1.701705933E0,-9.872131348E0,-1.303268433E0
5.490929503E0,-1.701705933E0,-9.888885498E0,-1.303268433E0
5.495812315E0,-1.720840454E0,-9.910415649E0,-1.308044434E0
5.500695128E0,-1.728027344E0,-9.970230103E0,-1.300872803E0
5.505577940E0,-1.696914673E0,-1.003723145E1,-1.269760132E0
5.510460753E0,-1.627517700E0,-1.013534546E1,-1.257797241E0
5.515343565E0,-1.586853027E0,-1.025497437E1,-1.217117310E0
5.520226378E0,-1.546173096E0,-1.027412415E1,-1.202758789E0
5.525109190E0,-1.510269165E0,-1.025019836E1,-1.140548706E0
5.529992003E0,-1.503097534E0,-1.019515991E1,-1.111831665E0
5.534874815E0,-1.510269165E0,-1.013055420E1,-1.128585815E0
5.539757628E0,-1.507888794E0,-1.009704590E1,-1.142944336E0
5.544640440E0,-1.517456055E0,-1.008508301E1,-1.178833008E0
5.549523253E0,-1.483963013E0,-1.010902405E1,-1.188415527E0
5.554406065E0,-1.491134644E0,-1.012098694E1,-1.217117310E0
5.559288878E0,-1.507888794E0,-1.010423279E1,-1.264984131E0
5.564171690E0,-1.500701904E0,-1.007791138E1,-1.255401611E0
5.569023985E0,-1.512664795E0,-1.005638123E1,-1.276947021E0
5.573906798E0,-1.524627686E0,-1.004202271E1,-1.310440063E0
5.578789610E0,-1.495925903E0,-1.002047729E1,-1.334365845E0
5.583672423E0,-1.503097534E0,-9.979812622E0,-1.334365845E0
5.588555235E0,-1.460021973E0,-9.955871582E0,-1.322402954E0
5.593438048E0,-1.404998779E0,-9.963058472E0,-1.288909912E0
5.598320860E0,-1.349960327E0,-9.943908691E0,-1.269760132E0
5.603203673E0,-1.304489136E0,-9.958267212E0,-1.241043091E0
5.608086485E0,-1.237487793E0,-9.970230103E0,-1.205154419E0
5.612969298E0,-1.218353271E0,-9.986984253E0,-1.174057007E0
5.617852110E0,-1.230316162E0,-9.996551514E0,-1.162094116E0
5.622734923E0,-1.254241943E0,-1.002287292E1,-1.128585815E0
5.627617735E0,-1.309280396E0,-1.003483582E1,-1.102264404E0
5.632500548E0,-1.345169067E0,-1.005638123E1,-9.826202393E-1
5.637383360E0,-1.383453369E0,-1.008508301E1,-1.032867432E0
5.642235655E0,-1.438491821E0,-1.014012146E1,-1.023300171E0
5.647118468E0,-1.445663452E0,-1.023344421E1,-1.018524170E0
5.652001280E0,-1.529418945E0,-1.025497437E1,-9.969787598E-1
5.656884093E0,-1.603591919E0,-1.025497437E1,-9.539184570E-1
5.661766905E0,-1.689743042E0,-1.024301147E1,-9.180145264E-1
5.666649718E0,-1.747161865E0,-1.024540710E1,-8.749542236E-1
5.671532530E0,-1.775878906E0,-1.028129578E1,-8.701629639E-1
5.676415343E0,-1.792633057E0,-1.031240845E1,-9.180145264E-1
5.681298155E0,-1.816558838E0,-1.033872986E1,-9.491271973E-1
5.686180968E0,-1.809387207E0,-1.030044556E1,-9.491271973E-1
5.691063780E0,-1.797409058E0,-1.021908569E1,-9.395599365E-1
5.695946593E0,-1.804595947E0,-1.010662842E1,-9.060516357E-1
5.700829405E0,-1.804595947E0,-1.003483582E1,-9.012756348E-1
5.705712218E0,-1.792633057E0,-9.998947144E0,-8.988800049E-1
5.710595030E0,-1.756744385E0,-9.977416992E0,-9.036560059E-1
5.715477843E0,-1.739990234E0,-9.941513062E0,-8.916931152E-1
5.720330138E0,-1.732803345E0,-9.896057129E0,-8.725585938E-1
5.725212950E0,-1.689743042E0,-9.876907349E0,-8.414459229E-1
5.730095763E0,-1.625137329E0,-9.898452759E0,-8.223114014E-1
5.734978575E0,-1.596420288E0,-9.955871582E0,-8.270874023E-1
5.739861388E0,-1.608383179E0,-1.005876160E1,-8.701629639E-1
5.744744200E0,-1.572494507E0,-1.012336731E1,-8.940887451E-1
5.749627013E0,-1.584457397E0,-1.017123413E1,-8.677673340E-1
5.754509825E0,-1.639495850E0,-1.016404724E1,-7.935943604E-1
5.759392638E0,-1.639495850E0,-1.014730835E1,-7.600860596E-1
5.764275450E0,-1.591629028E0,-1.016404724E1,-7.529144287E-1
5.769158263E0,-1.560531616E0,-1.019036865E1,-7.888031006E-1
5.774041075E0,-1.555740356E0,-1.019515991E1,-8.462371826E-1
5.778923888E0,-1.527023315E0,-1.021429443E1,-8.797302246E-1
5.783806700E0,-1.512664795E0,-1.023823547E1,-8.893127441E-1
5.788689513E0,-1.476776123E0,-1.026216125E1,-9.036560059E-1
5.793572325E0,-1.507888794E0,-1.025019836E1,-9.562988281E-1
5.798424620E0,-1.550949097E0,-1.022148132E1,-9.323730469E-1
5.803307432E0,-1.582061768E0,-1.020233154E1,-9.180145264E-1
5.808190245E0,-1.622741699E0,-1.016883850E1,-8.749542236E-1
5.813073057E0,-1.687347412E0,-1.012098694E1,-8.605957031E-1
5.817955870E0,-1.723236084E0,-1.005876160E1,-8.773345947E-1
5.822838682E0,-1.694519043E0,-1.002526855E1,-8.629913330E-1
5.827721495E0,-1.728027344E0,-1.002047729E1,-8.629913330E-1
5.832604307E0,-1.780670166E0,-9.996551514E0,-8.390502930E-1
5.837487120E0,-1.797409058E0,-9.977416992E0,-8.151245117E-1
5.842369932E0,-1.809387207E0,-1.002526855E1,-7.864074707E-1
5.847252745E0,-1.845275879E0,-1.006115723E1,-8.031616211E-1
5.852135557E0,-1.866806030E0,-1.008987427E1,-8.223114014E-1
5.857018370E0,-1.859634399E0,-1.010183716E1,-8.151245117E-1
5.861901182E0,-1.881164551E0,-1.012576294E1,-8.510131836E-1
5.866783995E0,-1.931411743E0,-1.014491272E1,-8.558044434E-1
5.871666807E0,-1.967300415E0,-1.011140442E1,-8.677673340E-1
5.876519102E0,-2.007980347E0,-1.011140442E1,-8.797302246E-1
5.881401915E0,-2.029525757E0,-1.009466553E1,-9.036560059E-1
5.886284727E0,-2.060623169E0,-1.005876160E1,-9.252014160E-1
5.891167540E0,-2.063018799E0,-1.003483582E1,-9.108428955E-1
5.896050352E0,-2.051055908E0,-1.000613403E1,-9.275970459E-1
5.900933165E0,-2.027130127E0,-9.994155884E0,-9.395599365E-1
5.905815977E0,-2.010375977E0,-1.000373840E1,-9.371643066E-1
5.910698790E0,-1.974487305E0,-1.001570129E1,-9.539184570E-1
5.915581602E0,-1.943374634E0,-1.002526855E1,-9.562988281E-1
5.920464415E0,-1.924240112E0,-1.002287292E1,-9.323730469E-1
5.925347227E0,-1.912277222E0,-1.003962708E1,-9.012756348E-1
5.930230040E0,-1.914657593E0,-1.005876160E1,-8.677673340E-1
5.935112852E0,-1.862014771E0,-1.009466553E1,-8.294830322E-1
5.939995665E0,-1.799804688E0,-1.014012146E1,-7.840270996E-1
5.944878477E0,-1.759124756E0,-1.018559265E1,-7.720642090E-1
5.949730772E0,-1.706481934E0,-1.022627258E1,-7.648773193E-1
5.954613585E0,-1.684951782E0,-1.026933289E1,-7.864074707E-1
5.959496397E0,-1.672988892E0,-1.027172852E1,-8.246917725E-1
5.964379210E0,-1.670593262E0,-1.031001282E1,-8.677673340E-1
5.969262022E0,-1.699310303E0,-1.031001282E1,-8.988800049E-1
5.974144835E0,-1.699310303E0,-1.028608704E1,-8.869171143E-1
5.979027647E0,-1.713668823E0,-1.025737000E1,-8.797302246E-1
5.983910460E0,-1.732803345E0,-1.021908569E1,-8.725585938E-1
5.988793272E0,-1.768707275E0,-1.017601013E1,-9.132385254E-1
5.993676085E0,-1.792633057E0,-1.010183716E1,-9.467315674E-1
5.998558897E0,-1.818954468E0,-1.003005981E1,-9.706573486E-1
6.003441710E0,-1.864410400E0,-9.963058472E0,-9.682617188E-1
6.008324522E0,-1.888336182E0,-9.891265869E0,-9.467315674E-1
6.013207335E0,-1.895523071E0,-9.872131348E0,-9.228057861E-1
6.018090147E0,-1.929016113E0,-9.845809937E0,-8.964843750E-1
6.022972960E0,-1.945770264E0,-9.860168457E0,-8.916931152E-1
6.027825255E0,-1.967300415E0,-9.903228760E0,-8.916931152E-1
6.032708067E0,-1.986450195E0,-9.958267212E0,-8.605957031E-1
6.037590880E0,-2.005584717E0,-1.001330566E1,-8.629913330E-1
6.042473692E0,-1.993621826E0,-1.003962708E1,-8.414459229E-1
6.047356505E0,-1.986450195E0,-1.006834412E1,-8.175201416E-1
6.052239317E0,-1.981658936E0,-1.010902405E1,-8.175201416E-1
6.057122130E0,-1.969696045E0,-1.011619568E1,-8.031616211E-1
6.062004942E0,-2.017547607E0,-1.010662842E1,-8.175201416E-1
6.066887755E0,-2.070190430E0,-1.006594849E1,-8.677673340E-1
6.071770567E0,-2.089340210E0,-9.991775513E0,-8.342742920E-1
6.076653380E0,-2.096511841E0,-9.965454102E0,-8.151245117E-1
6.081536192E0,-2.130020142E0,-9.941513062E0,-7.935943604E-1
6.086419005E0,-2.101303101E0,-9.996551514E0,-8.031616211E-1
6.091301817E0,-2.125228882E0,-1.001809692E1,-7.983856201E-1
6.096184630E0,-2.158737183E0,-1.001330566E1,-7.983856201E-1
6.101036925E0,-2.098907471E0,-1.005398560E1,-8.079528809E-1
6.105919737E0,-2.065414429E0,-1.008747864E1,-7.840270996E-1
6.110802550E0,-2.007980347E0,-1.010902405E1,-7.529144287E-1
6.115685362E0,-1.984054565E0,-1.011859131E1,-7.529144287E-1
6.120568175E0,-1.969696045E0,-1.012098694E1,-7.648773193E-1
6.125450987E0,-1.938598633E0,-1.013055420E1,-7.816314697E-1
6.130333800E0,-1.962524414E0,-1.013534546E1,-7.792358398E-1
6.135216612E0,-1.969696045E0,-1.014251709E1,-7.888031006E-1
6.140099425E0,-1.998413086E0,-1.012576294E1,-8.366699219E-1
6.144982237E0,-2.051055908E0,-1.007551575E1,-8.462371826E-1
6.149865050E0,-2.091735840E0,-1.006355286E1,-8.653717041E-1
6.154747862E0,-2.118057251E0,-1.004919434E1,-9.060516357E-1
6.159630675E0,-2.144378662E0,-1.002766418E1,-9.252014160E-1
6.164513487E0,-2.175476074E0,-1.002047729E1,-9.228057861E-1
6.169396300E0,-2.199417114E0,-9.984588623E0,-9.347686768E-1
6.174279112E0,-2.168304443E0,-9.924774170E0,-9.323730469E-1
6.179131407E0,-2.134796143E0,-9.929550171E0,-9.658813477E-1
6.184014220E0,-2.122833252E0,-9.941513062E0,-9.395599365E-1
6.188897032E0,-2.072586060E0,-9.965454102E0,-9.347686768E-1
6.193779845E0,-2.029525757E0,-1.000134277E1,-9.156188965E-1
6.198662657E0,-2.017547607E0,-9.986984253E0,-9.419403076E-1
6.203545470E0,-1.919448853E0,-9.955871582E0,-9.491271973E-1
6.208428282E0,-1.893127441E0,-9.924774170E0,-9.491271973E-1
6.213311095E0,-1.902694702E0,-9.905624390E0,-9.945831299E-1
6.218193907E0,-2.012771606E0,-9.915206909E0,-9.515228271E-1
6.223076720E0,-2.029525757E0,-9.939132690E0,-9.132385254E-1
6.227959532E0,-2.108489990E0,-9.826660156E0,-1.001770020E0
6.232842345E0,-2.122833252E0,-9.836242676E0,-1.073547363E0
6.237725157E0,-2.266403198E0,-9.797943115E0,-1.087905884E0
6.242607970E0,-2.405197144E0,-9.721374512E0,-1.080734253E0
6.247490782E0,-2.433898926E0,-9.671127319E0,-9.204101562E-1
6.252343077E0,-2.376480103E0,-9.697448730E0,-7.433471680E-1
6.257225890E0,-2.314270020E0,-9.848205566E0,-7.361602783E-1
6.262108702E0,-2.299911499E0,-1.001330566E1,-7.696685791E-1
6.266991515E0,-2.287948608E0,-1.014012146E1,-7.744445801E-1
6.271874327E0,-2.223342896E0,-1.022148132E1,-7.768402100E-1
6.276757140E0,-2.206588745E0,-1.026216125E1,-7.026672363E-1
6.281639952E0,-2.089340210E0,-1.033633423E1,-7.816314697E-1
6.286522765E0,-2.079772949E0,-1.051101685E1,-8.055572510E-1
6.291405577E0,-2.120452881E0,-1.063783264E1,-7.289886475E-1
6.296288390E0,-2.213760376E0,-1.062826538E1,-6.021728516E-1
6.301171202E0,-2.462615967E0,-1.045837402E1,-3.054504395E-1
6.306054015E0,-2.807189941E0,-1.015687561E1,-2.549743652E-2
6.310936827E0,-2.843078613E0,-9.970230103E0,-2.982788086E-1
6.315819640E0,-2.682754517E0,-9.776412964E0,-8.893127441E-1
6.320702452E0,-2.584655762E0,-9.458175659E0,-1.145339966E0
6.325585265E0,-2.510482788E0,-9.101638794E0,-6.021728516E-1
6.330437559E0,-1.826126099E0,-9.080108643E0,-2.839202881E-1
6.335320372E0,-1.093933105E0,-9.781204224E0,-4.825286865E-1
6.340203184E0,-8.666076660E-1,-1.065936279E1,-1.157302856E0
6.345085997E0,-1.053253174E0,-1.105418396E1,-1.669372559E0
6.349968809E0,-1.175277710E0,-1.095368958E1,-1.712432861E0
6.354851622E0,-1.493530273E0,-1.070483398E1,-1.348724365E0
6.359734434E0,-1.806991577E0,-1.052775574E1,-1.011337280E0
6.364617247E0,-2.019943237E0,-1.048229980E1,-9.180145264E-1
6.369500059E0,-2.074981689E0,-1.044879150E1,-9.826202393E-1
6.374382872E0,-2.098907471E0,-1.031958008E1,-1.004165649E0
6.379265684E0,-2.199417114E0,-1.008987427E1,-9.371643066E-1
6.384148497E0,-2.225723267E0,-9.833847046E0,-9.419403076E-1
6.389031309E0,-2.228118896E0,-9.649597168E0,-9.898071289E-1
6.393914122E0,-2.225723267E0,-9.520385742E0,-1.066375732E0
6.398796934E0,-2.185058594E0,-9.470138550E0,-1.119018555E0
6.403649229E0,-2.151550293E0,-9.486877441E0,-1.066375732E0
6.408532042E0,-2.134796143E0,-9.515594482E0,-1.013732910E0
6.413414854E0,-2.163513184E0,-9.594558716E0,-9.299774170E-1
6.418297667E0,-2.173095703E0,-9.685485840E0,-8.821258545E-1
6.423180479E0,-2.208984375E0,-9.781204224E0,-8.677673340E-1
6.428063292E0,-2.254440308E0,-9.912811279E0,-8.605957031E-1
6.432946104E0,-2.326232910E0,-1.001809692E1,-8.175201416E-1
6.437828917E0,-2.417160034E0,-1.010662842E1,-7.983856201E-1
6.442711729E0,-2.491333008E0,-1.012098694E1,-7.959899902E-1
6.447594542E0,-2.546371460E0,-1.010662842E1,-8.079528809E-1
6.452477354E0,-2.570297241E0,-1.005398560E1,-8.127288818E-1
6.457360167E0,-2.572692871E0,-1.001570129E1,-7.935943604E-1
6.462242979E0,-2.575088501E0,-9.965454102E0,-7.888031006E-1
6.467125792E0,-2.575088501E0,-9.927169800E0,-7.911987305E-1
6.472008604E0,-2.577468872E0,-9.886489868E0,-8.366699219E-1
6.476891417E0,-2.558334351E0,-9.874526978E0,-8.893127441E-1
6.481743712E0,-2.572692871E0,-9.852981567E0,-9.443359375E-1
6.486626524E0,-2.558334351E0,-9.836242676E0,-1.035263062E0
6.491509337E0,-2.534408569E0,-9.831451416E0,-1.092697144E0
6.496392149E0,-2.527221680E0,-9.838623047E0,-1.111831665E0
6.501274962E0,-2.508087158E0,-9.831451416E0,-1.133377075E0
6.506157774E0,-2.476974487E0,-9.831451416E0,-1.145339966E0
6.511040587E0,-2.429122925E0,-9.841018677E0,-1.135772705E0
6.515923399E0,-2.369293213E0,-9.826660156E0,-1.135772705E0
6.520806212E0,-2.328628540E0,-9.819488525E0,-1.104660034E0
6.525689024E0,-2.290344238E0,-9.814697266E0,-1.121414185E0
6.530571837E0,-2.287948608E0,-9.785980225E0,-1.121414185E0
6.535454649E0,-2.393234253E0,-9.711807251E0,-1.138153076E0
6.540337462E0,-2.625335693E0,-9.805130005E0,-1.032867432E0
6.545220274E0,-2.718658447E0,-1.017601013E1,-1.260192871E0
6.550103087E0,-2.919647217E0,-9.668731689E0,-1.741149902E0
6.554985899E0,-2.811965942E0,-9.252380371E0,-9.993743896E-1
6.559838194E0,-2.532012939E0,-9.388778687E0,-7.095336914E-2
6.564721007E0,-2.400405884E0,-9.800338745E0,-1.571044922E-1
6.569603819E0,-2.479370117E0,-9.838623047E0,-8.749542236E-1
6.574486632E0,-2.467407227E0,-9.673522949E0,-1.288909912E0
6.579369444E0,-2.654052734E0,-9.620880127E0,-1.214721680E0
6.584252257E0,-2.567901611E0,-9.707015991E0,-9.850158691E-1
6.589135069E0,-2.400405884E0,-9.922378540E0,-8.797302246E-1
6.594017882E0,-2.424331665E0,-1.018559265E1,-8.701629639E-1
6.598900694E0,-2.357330322E0,-1.037701416E1,-9.395599365E-1
6.603783507E0,-2.278366089E0,-1.047273254E1,-9.898071289E-1
6.608666319E0,-2.216156006E0,-1.044879150E1,-9.922027588E-1
6.613549132E0,-2.199417114E0,-1.037940979E1,-1.006546021E0
6.618431944E0,-2.247268677E0,-1.028129578E1,-1.028091431E0
6.623314757E0,-2.264022827E0,-1.019036865E1,-1.075942993E0
6.628197569E0,-2.316665649E0,-1.013055420E1,-1.130981445E0
6.633080382E0,-2.319046021E0,-1.008508301E1,-1.157302856E0
6.637932677E0,-2.268798828E0,-9.994155884E0,-1.154907227E0
6.642815489E0,-2.197021484E0,-9.936737061E0,-1.152511597E0
6.647698302E0,-2.199417114E0,-9.905624390E0,-1.133377075E0
6.652581114E0,-2.185058594E0,-9.927169800E0,-1.130981445E0
6.657463927E0,-2.201797485E0,-9.941513062E0,-1.123794556E0
6.662346739E0,-2.232910156E0,-9.955871582E0,-1.130981445E0
6.667229552E0,-2.254440308E0,-9.958267212E0,-1.162094116E0
6.672112364E0,-2.290344238E0,-9.977416992E0,-1.135772705E0
6.676995177E0,-2.342971802E0,-9.941513062E0,-1.102264404E0
6.681877989E0,-2.407592773E0,-9.919982910E0,-1.061584473E0
6.686760802E0,-2.409973145E0,-9.900848389E0,-9.898071289E-1
6.691643614E0,-2.433898926E0,-9.903228760E0,-9.586944580E-1
6.696526427E0,-2.412368774E0,-9.924774170E0,-8.869171143E-1
6.701409239E0,-2.390838623E0,-9.951095581E0,-8.629913330E-1
6.706292052E0,-2.342971802E0,-9.972625732E0,-8.414459229E-1
6.711144347E0,-2.278366089E0,-9.982192993E0,-8.223114014E-1
6.716027159E0,-2.254440308E0,-9.998947144E0,-8.175201416E-1
6.720909972E0,-2.220947266E0,-1.000613403E1,-8.366699219E-1
6.725792784E0,-2.156341553E0,-9.998947144E0,-8.725585938E-1
6.730675597E0,-2.101303101E0,-1.000373840E1,-9.108428955E-1
6.735558409E0,-2.072586060E0,-1.002766418E1,-9.586944580E-1
6.740441222E0,-2.003204346E0,-1.003723145E1,-9.730529785E-1
6.745324034E0,-1.972091675E0,-1.005638123E1,-9.682617188E-1
6.750206847E0,-1.895523071E0,-1.010423279E1,-9.730529785E-1
6.755089659E0,-1.859634399E0,-1.013055420E1,-9.610900879E-1
6.759972472E0,-1.809387207E0,-1.015927124E1,-9.515228271E-1
6.764855284E0,-1.747161865E0,-1.019276428E1,-9.371643066E-1
6.769738097E0,-1.689743042E0,-1.019995117E1,-9.682617188E-1
6.774620909E0,-1.651458740E0,-1.019276428E1,-1.006546021E0
6.779503722E0,-1.622741699E0,-1.014491272E1,-1.044845581E0
6.784386534E0,-1.682556152E0,-1.013055420E1,-1.092697144E0
6.789238829E0,-1.684951782E0,-1.011140442E1,-1.135772705E0
6.794121641E0,-1.699310303E0,-1.006115723E1,-1.188415527E0
6.799004454E0,-1.749557495E0,-1.001570129E1,-1.195587158E0
6.803887266E0,-1.799804688E0,-9.982192993E0,-1.195587158E0
6.808770079E0,-1.809387207E0,-9.939132690E0,-1.221908569E0
6.813652891E0,-1.840484619E0,-9.919982910E0,-1.226699829E0
6.818535704E0,-1.866806030E0,-9.900848389E0,-1.212341309E0
6.823418516E0,-1.885955811E0,-9.898452759E0,-1.186019897E0
6.828301329E0,-1.909881592E0,-9.919982910E0,-1.154907227E0
6.833184141E0,-1.914657593E0,-9.912811279E0,-1.126190186E0
6.838066954E0,-1.921844482E0,-9.931945801E0,-1.128585815E0
6.842949766E0,-1.921844482E0,-9.948699951E0,-1.128585815E0
6.847832579E0,-1.945770264E0,-9.951095581E0,-1.133377075E0
6.852715391E0,-1.972091675E0,-9.977416992E0,-1.145339966E0
6.857598204E0,-1.984054565E0,-9.994155884E0,-1.152511597E0
6.862481016E0,-2.034301758E0,-9.998947144E0,-1.169265747E0
6.867333311E0,-2.039093018E0,-9.996551514E0,-1.174057007E0
6.872216124E0,-2.082168579E0,-9.989379883E0,-1.164474487E0
6.877098936E0,-2.120452881E0,-9.982192993E0,-1.171661377E0
6.881981749E0,-2.153945923E0,-9.986984253E0,-1.176437378E0
6.886864561E0,-2.206588745E0,-9.986984253E0,-1.174057007E0
6.891747374E0,-2.208984375E0,-9.998947144E0,-1.174057007E0
6.896630186E0,-2.247268677E0,-9.989379883E0,-1.171661377E0
6.901512999E0,-2.295120239E0,-9.979812622E0,-1.190795898E0
6.906395811E0,-2.326232910E0,-9.955871582E0,-1.166870117E0
6.911278624E0,-2.371688843E0,-9.943908691E0,-1.186019897E0
6.916161436E0,-2.405197144E0,-9.917587280E0,-1.190795898E0
6.921044249E0,-2.424331665E0,-9.893661499E0,-1.171661377E0
6.925927061E0,-2.457839966E0,-9.862564087E0,-1.147735596E0
6.930809874E0,-2.476974487E0,-9.836242676E0,-1.123794556E0
6.935692686E0,-2.491333008E0,-9.812301636E0,-1.121414185E0
6.940544981E0,-2.491333008E0,-9.824264526E0,-1.090301514E0
6.945427794E0,-2.467407227E0,-9.838623047E0,-1.080734253E0
6.950310606E0,-2.433898926E0,-9.872131348E0,-1.068771362E0
6.955193419E0,-2.383651733E0,-9.888885498E0,-1.066375732E0
6.960076231E0,-2.326232910E0,-9.903228760E0,-1.066375732E0
6.964959044E0,-2.297515869E0,-9.915206909E0,-1.068771362E0
6.969841856E0,-2.256835938E0,-9.917587280E0,-1.083129883E0
6.974724669E0,-2.240081787E0,-9.951095581E0,-1.116622925E0
6.979607481E0,-2.230514526E0,-9.975021362E0,-1.133377075E0
6.984490294E0,-2.242477417E0,-1.000851440E1,-1.138153076E0
6.989373106E0,-2.225723267E0,-1.002047729E1,-1.174057007E0
6.994255919E0,-2.223342896E0,-1.003483582E1,-1.178833008E0
6.999138731E0,-2.218551636E0,-1.005638123E1,-1.193191528E0
7.004021544E0,-2.218551636E0,-1.008030701E1,-1.193191528E0
7.008904356E0,-2.211380005E0,-1.009704590E1,-1.200378418E0
7.013787169E0,-2.204193115E0,-1.009226990E1,-1.221908569E0
7.018639464E0,-2.182662964E0,-1.007312012E1,-1.193191528E0
7.023522276E0,-2.163513184E0,-1.004679871E1,-1.171661377E0
7.028405089E0,-2.153945923E0,-1.003244019E1,-1.152511597E0
7.033287901E0,-2.118057251E0,-9.998947144E0,-1.133377075E0
7.038170714E0,-2.091735840E0,-9.967834473E0,-1.102264404E0
7.043053526E0,-2.053451538E0,-9.931945801E0,-1.071166992E0
7.047936339E0,-2.051055908E0,-9.924774170E0,-1.037658691E0
7.052819151E0,-1.991241455E0,-9.922378540E0,-1.037658691E0
7.057701964E0,-1.962524414E0,-9.898452759E0,-1.037658691E0
7.062584776E0,-1.943374634E0,-9.917587280E0,-1.040054321E0
7.067467589E0,-1.950561523E0,-9.936737061E0,-1.063980103E0
7.072350401E0,-1.938598633E0,-9.951095581E0,-1.114227295E0
7.077233214E0,-1.917053223E0,-9.979812622E0,-1.145339966E0
7.082116026E0,-1.945770264E0,-9.982192993E0,-1.205154419E0
7.086998839E0,-1.981658936E0,-9.989379883E0,-1.255401611E0
7.091851134E0,-2.034301758E0,-1.001570129E1,-1.276947021E0
7.096733946E0,-2.063018799E0,-1.000373840E1,-1.291305542E0
7.101616759E0,-2.122833252E0,-9.994155884E0,-1.286514282E0
7.106499571E0,-2.134796143E0,-9.975021362E0,-1.276947021E0
7.111382384E0,-2.170700073E0,-9.972625732E0,-1.243438721E0
7.116265196E0,-2.197021484E0,-9.979812622E0,-1.214721680E0
7.121148009E0,-2.197021484E0,-9.951095581E0,-1.200378418E0
7.126030821E0,-2.230514526E0,-9.958267212E0,-1.140548706E0
7.130913634E0,-2.232910156E0,-9.970230103E0,-1.114227295E0
7.135796446E0,-2.242477417E0,-9.991775513E0,-1.073547363E0
7.140679259E0,-2.223342896E0,-1.001330566E1,-1.037658691E0
7.145562071E0,-2.180267334E0,-1.002526855E1,-9.874114990E-1
7.150444884E0,-2.151550293E0,-1.000851440E1,-9.586944580E-1
7.155327696E0,-2.132415771E0,-9.989379883E0,-9.634857178E-1
7.160210509E0,-2.146774292E0,-9.979812622E0,-9.754486084E-1
7.165093321E0,-2.144378662E0,-9.972625732E0,-9.802398682E-1
7.169945616E0,-2.163513184E0,-9.960662842E0,-9.802398682E-1
7.174828429E0,-2.175476074E0,-9.965454102E0,-9.874114990E-1
7.179711241E0,-2.180267334E0,-9.963058472E0,-9.850158691E-1
7.184594054E0,-2.146774292E0,-9.970230103E0,-9.945831299E-1
7.189476866E0,-2.161117554E0,-9.982192993E0,-9.850158691E-1
7.194359679E0,-2.163513184E0,-9.972625732E0,-1.023300171E0
7.199242491E0,-2.173095703E0,-9.967834473E0,-1.059188843E0
7.204125304E0,-2.199417114E0,-9.965454102E0,-1.092697144E0
7.209008116E0,-2.213760376E0,-9.955871582E0,-1.130981445E0
7.213890929E0,-2.201797485E0,-9.955871582E0,-1.157302856E0
7.218773741E0,-2.192230225E0,-9.958267212E0,-1.200378418E0
7.223656554E0,-2.168304443E0,-9.941513062E0,-1.224304199E0
7.228539366E0,-2.134796143E0,-9.939132690E0,-1.243438721E0
7.233422179E0,-2.120452881E0,-9.934341431E0,-1.238662720E0
7.238304991E0,-2.091735840E0,-9.939132690E0,-1.221908569E0
7.243187804E0,-2.065414429E0,-9.924774170E0,-1.231475830E0
7.248040099E0,-2.029525757E0,-9.915206909E0,-1.214721680E0
7.252922911E0,-2.017547607E0,-9.903228760E0,-1.195587158E0
7.257805724E0,-2.017547607E0,-9.896057129E0,-1.197982788E0
7.262688536E0,-2.031906128E0,-9.886489868E0,-1.169265747E0
7.267571349E0,-2.031906128E0,-9.886489868E0,-1.166870117E0
7.272454161E0,-2.034301758E0,-9.888885498E0,-1.128585815E0
7.277336974E0,-2.029525757E0,-9.898452759E0,-1.130981445E0
7.282219786E0,-2.034301758E0,-9.910415649E0,-1.095092773E0
7.287102599E0,-2.029525757E0,-9.939132690E0,-1.063980103E0
7.291985411E0,-2.017547607E0,-9.970230103E0,-1.037658691E0
7.296868224E0,-2.010375977E0,-1.000373840E1,-1.001770020E0
7.301751036E0,-1.972091675E0,-1.007312012E1,-9.850158691E-1
7.306633849E0,-1.955337524E0,-1.012815857E1,-9.730529785E-1
7.311516661E0,-1.902694702E0,-1.019755554E1,-9.515228271E-1
7.316399474E0,-1.833312988E0,-1.023583984E1,-9.347686768E-1
7.321251768E0,-1.778274536E0,-1.028608704E1,-9.419403076E-1
7.326134581E0,-1.742385864E0,-1.029325867E1,-9.371643066E-1
7.331017393E0,-1.704101562E0,-1.031958008E1,-9.562988281E-1
7.335900206E0,-1.689743042E0,-1.030523682E1,-9.802398682E-1
7.340783018E0,-1.672988892E0,-1.027651978E1,-1.008941650E0
7.345665831E0,-1.682556152E0,-1.025737000E1,-1.032867432E0
7.350548643E0,-1.706481934E0,-1.021908569E1,-1.075942993E0
7.355431456E0,-1.699310303E0,-1.020712280E1,-1.083129883E0
7.360314268E0,-1.684951782E0,-1.017123413E1,-1.116622925E0
7.365197081E0,-1.704101562E0,-1.013055420E1,-1.128585815E0
7.370079893E0,-1.720840454E0,-1.010662842E1,-1.157302856E0
7.374962706E0,-1.706481934E0,-1.010183716E1,-1.162094116E0
7.379845518E0,-1.704101562E0,-1.008030701E1,-1.121414185E0
7.384728331E0,-1.670593262E0,-1.005876160E1,-1.116622925E0
7.389611143E0,-1.661026001E0,-1.003483582E1,-1.087905884E0
7.394493956E0,-1.661026001E0,-1.002526855E1,-1.068771362E0
7.399346251E0,-1.668197632E0,-1.001809692E1,-1.052017212E0
7.404229063E0,-1.656234741E0,-1.002287292E1,-1.023300171E0
7.409111876E0,-1.682556152E0,-1.004441833E1,-1.001770020E0
7.413994688E0,-1.672988892E0,-1.005158997E1,-1.001770020E0
7.418877501E0,-1.677780151E0,-1.005876160E1,-9.993743896E-1
7.423760313E0,-1.692138672E0,-1.009466553E1,-1.020904541E0
7.428643126E0,-1.682556152E0,-1.011859131E1,-1.025695801E0
7.433525938E0,-1.694519043E0,-1.012815857E1,-1.042449951E0
7.438408751E0,-1.694519043E0,-1.015208435E1,-1.044845581E0
7.443291563E0,-1.663421631E0,-1.017840576E1,-1.049621582E0
7.448174376E0,-1.661026001E0,-1.018080139E1,-1.049621582E0
7.453057188E0,-1.627517700E0,-1.017362976E1,-1.059188843E0
7.457940001E0,-1.605987549E0,-1.018080139E1,-1.087905884E0
7.462822813E0,-1.601211548E0,-1.017362976E1,-1.121414185E0
7.467675108E0,-1.603591919E0,-1.016883850E1,-1.135772705E0
7.472588438E0,-1.601211548E0,-1.014251709E1,-1.164474487E0
7.477440733E0,-1.615554810E0,-1.012336731E1,-1.166870117E0
7.482323546E0,-1.622741699E0,-1.011619568E1,-1.205154419E0
7.487206358E0,-1.632308960E0,-1.011140442E1,-1.207550049E0
7.492089171E0,-1.649063110E0,-1.010423279E1,-1.241043091E0
7.496971983E0,-1.692138672E0,-1.009466553E1,-1.236267090E0
7.501854796E0,-1.711273193E0,-1.008987427E1,-1.248229980E0
7.506737608E0,-1.742385864E0,-1.010183716E1,-1.233871460E0
7.511620421E0,-1.795028687E0,-1.008508301E1,-1.226699829E0
7.516503233E0,-1.833312988E0,-1.004919434E1,-1.221908569E0
7.521386046E0,-1.871597290E0,-1.003005981E1,-1.214721680E0
7.526268858E0,-1.885955811E0,-1.002287292E1,-1.212341309E0
7.531151671E0,-1.926620483E0,-9.998947144E0,-1.233871460E0
7.536034483E0,-1.955337524E0,-9.996551514E0,-1.248229980E0
7.540917296E0,-2.007980347E0,-9.960662842E0,-1.276947021E0
7.545800108E0,-2.041488647E0,-9.939132690E0,-1.286514282E0
7.550682921E0,-2.106094360E0,-9.896057129E0,-1.300872803E0
7.555535216E0,-2.144378662E0,-9.891265869E0,-1.317626953E0
7.560418028E0,-2.187438965E0,-9.824264526E0,-1.339157104E0
7.565300841E0,-2.244873047E0,-9.817092896E0,-1.355911255E0
7.570183653E0,-2.290344238E0,-9.781204224E0,-1.348724365E0
7.575066466E0,-2.309478760E0,-9.762054443E0,-1.348724365E0
7.579949278E0,-2.364517212E0,-9.750091553E0,-1.310440063E0
7.584832091E0,-2.402801514E0,-9.762054443E0,-1.298477173E0
7.589714903E0,-2.395614624E0,-9.776412964E0,-1.281723022E0
7.594597716E0,-2.400405884E0,-9.833847046E0,-1.262588501E0
7.599480528E0,-2.400405884E0,-9.864944458E0,-1.233871460E0
7.604363341E0,-2.409973145E0,-9.905624390E0,-1.219512939E0
7.609246153E0,-2.347763062E0,-9.939132690E0,-1.279342651E0
7.614128966E0,-2.309478760E0,-9.967834473E0,-1.224304199E0
7.619011778E0,-2.295120239E0,-1.003723145E1,-1.056808472E0
7.623894591E0,-2.331008911E0,-1.012815857E1,-1.040054321E0
7.628746886E0,-2.340591431E0,-1.021191406E1,-1.135772705E0
7.633629698E0,-2.249664307E0,-1.022865295E1,-1.248229980E0
7.638512511E0,-2.120452881E0,-1.023823547E1,-1.276947021E0
7.643395323E0,-2.118057251E0,-1.019036865E1,-1.123794556E0
7.648278136E0,-2.208984375E0,-1.012815857E1,-9.969787598E-1
7.653160948E0,-2.304687500E0,-1.001809692E1,-1.078338623E0
7.658043761E0,-2.297515869E0,-9.941513062E0,-1.281723022E0
7.662926573E0,-2.252044678E0,-9.929550171E0,-1.370269775E0
7.667809386E0,-2.264022827E0,-9.960662842E0,-1.264984131E0
7.672692198E0,-2.216156006E0,-9.970230103E0,-1.121414185E0
7.677575011E0,-2.213760376E0,-9.946304321E0,-1.102264404E0
7.682457823E0,-2.218551636E0,-9.869735718E0,-1.205154419E0
7.687340636E0,-2.206588745E0,-9.812301636E0,-1.305664062E0
7.692223448E0,-2.223342896E0,-9.738128662E0,-1.305664062E0
7.697106261E0,-2.259231567E0,-9.697448730E0,-1.269760132E0
7.701989073E0,-2.278366089E0,-9.661560059E0,-1.264984131E0
7.706841368E0,-2.259231567E0,-9.651992798E0,-1.281723022E0
7.711724181E0,-2.252044678E0,-9.668731689E0,-1.195587158E0
7.716606993E0,-2.180267334E0,-9.683090210E0,-1.126190186E0
7.721489806E0,-2.151550293E0,-9.774017334E0,-1.056808472E0
7.726372618E0,-2.065414429E0,-9.845809937E0,-9.945831299E-1
7.731255431E0,-1.981658936E0,-9.903228760E0,-9.586944580E-1
7.736138243E0,-1.919448853E0,-9.948699951E0,-9.371643066E-1
7.741021056E0,-1.912277222E0,-9.953491211E0,-9.036560059E-1
7.745903868E0,-1.917053223E0,-9.951095581E0,-8.869171143E-1
7.750786681E0,-1.873992920E0,-9.996551514E0,-9.060516357E-1
7.755669493E0,-1.852447510E0,-1.002526855E1,-9.060516357E-1
7.760552306E0,-1.838088989E0,-1.003244019E1,-8.916931152E-1
7.765435118E0,-1.828521729E0,-1.006115723E1,-9.012756348E-1
7.770317931E0,-1.821350098E0,-1.007312012E1,-8.916931152E-1
7.775200743E0,-1.818954468E0,-1.011859131E1,-9.252014160E-1
7.780083556E0,-1.790237427E0,-1.018797302E1,-8.964843750E-1
7.784935850E0,-1.749557495E0,-1.024061584E1,-9.084472656E-1
7.789818663E0,-1.689743042E0,-1.027172852E1,-9.252014160E-1
7.794701475E0,-1.610778809E0,-1.031001282E1,-9.395599365E-1
7.799584288E0,-1.570098877E0,-1.031958008E1,-9.610900879E-1
7.804467100E0,-1.529418945E0,-1.032197571E1,-9.730529785E-1
7.809349913E0,-1.500701904E0,-1.031719971E1,-9.802398682E-1
7.814232725E0,-1.486343384E0,-1.028848267E1,-9.730529785E-1
7.819115538E0,-1.452850342E0,-1.026216125E1,-9.706573486E-1
7.823998350E0,-1.476776123E0,-1.023583984E1,-9.586944580E-1
7.828881163E0,-1.474380493E0,-1.021669006E1,-9.299774170E-1
7.833763975E0,-1.469604492E0,-1.019276428E1,-9.347686768E-1
7.838646788E0,-1.469604492E0,-1.017362976E1,-9.204101562E-1
7.843529600E0,-1.486343384E0,-1.012098694E1,-8.964843750E-1
7.848412413E0,-1.493530273E0,-1.009944153E1,-9.036560059E-1
7.853295225E0,-1.515060425E0,-1.007312012E1,-8.773345947E-1
7.858147520E0,-1.527023315E0,-1.005158997E1,-8.653717041E-1
7.863030333E0,-1.553344727E0,-1.006115723E1,-8.677673340E-1
7.867913145E0,-1.570098877E0,-1.009226990E1,-8.390502930E-1
7.872795958E0,-1.567703247E0,-1.013294983E1,-8.103485107E-1
7.877678770E0,-1.517456055E0,-1.018319702E1,-7.720642090E-1
7.882561583E0,-1.471984863E0,-1.022627258E1,-7.553100586E-1
7.887444395E0,-1.426528931E0,-1.025976562E1,-7.672729492E-1
7.892327208E0,-1.393035889E0,-1.027651978E1,-7.864074707E-1
7.897210020E0,-1.412170410E0,-1.026693726E1,-8.079528809E-1
7.902092833E0,-1.471984863E0,-1.024061584E1,-8.582000732E-1
7.906975645E0,-1.510269165E0,-1.022627258E1,-8.940887451E-1
7.911858458E0,-1.560531616E0,-1.019755554E1,-9.658813477E-1
7.916741270E0,-1.620346069E0,-1.018080139E1,-1.025695801E0
7.921624083E0,-1.696914673E0,-1.014491272E1,-1.049621582E0
7.926506895E0,-1.723236084E0,-1.012815857E1,-1.085510254E0
7.931389708E0,-1.773483276E0,-1.011619568E1,-1.095092773E0
7.936242003E0,-1.811767578E0,-1.009226990E1,-1.130981445E0
7.941124815E0,-1.835693359E0,-1.005398560E1,-1.152511597E0
7.946007628E0,-1.859634399E0,-1.001091003E1,-1.138153076E0
7.950890440E0,-1.878768921E0,-9.975021362E0,-1.159698486E0
7.955773253E0,-1.864410400E0,-9.955871582E0,-1.135772705E0
7.960656065E0,-1.866806030E0,-9.951095581E0,-1.138153076E0
7.965538878E0,-1.873992920E0,-9.958267212E0,-1.142944336E0
7.970421690E0,-1.888336182E0,-9.941513062E0,-1.119018555E0
7.975304503E0,-1.883560181E0,-9.965454102E0,-1.109451294E0
7.980187315E0,-1.900314331E0,-9.965454102E0,-1.104660034E0
7.985070128E0,-1.914657593E0,-9.977416992E0,-1.075942993E0
7.989952940E0,-1.919448853E0,-9.994155884E0,-1.047225952E0
7.994835753E0,-1.926620483E0,-1.000134277E1,-1.047225952E0
7.999718565E0,-1.933807373E0,-9.984588623E0,-1.030487061E0
8.004601378E0,-1.933807373E0,-9.975021362E0,-1.032867432E0
8.009453673E0,-1.945770264E0,-9.965454102E0,-1.052017212E0
8.014336485E0,-1.964920044E0,-9.929550171E0,-1.080734253E0
8.019219298E0,-2.012771606E0,-9.929550171E0,-1.111831665E0
8.024102110E0,-2.036697388E0,-9.886489868E0,-1.147735596E0
8.028984923E0,-2.055847168E0,-9.922378540E0,-1.157302856E0
8.033867735E0,-2.072586060E0,-9.931945801E0,-1.157302856E0
8.038750548E0,-2.065414429E0,-9.948699951E0,-1.164474487E0
8.043633360E0,-2.043869019E0,-9.960662842E0,-1.178833008E0
8.048516173E0,-2.039093018E0,-9.982192993E0,-1.178833008E0
8.053398985E0,-2.048660278E0,-9.996551514E0,-1.174057007E0
8.058281798E0,-2.046264648E0,-9.982192993E0,-1.150115967E0
8.063164610E0,-2.060623169E0,-9.984588623E0,-1.171661377E0
8.068047423E0,-2.058227539E0,-1.001330566E1,-1.171661377E0
8.072930235E0,-2.031906128E0,-1.004441833E1,-1.157302856E0
8.077813048E0,-1.991241455E0,-1.007551575E1,-1.133377075E0
8.082695860E0,-1.943374634E0,-1.012336731E1,-1.114227295E0
8.087548155E0,-1.902694702E0,-1.010423279E1,-1.123794556E0
8.092430968E0,-1.897918701E0,-1.008987427E1,-1.140548706E0
8.097313780E0,-1.862014771E0,-1.008747864E1,-1.171661377E0
8.102196593E0,-1.895523071E0,-1.008508301E1,-1.202758789E0
8.107079405E0,-1.895523071E0,-1.008270264E1,-1.183624268E0
8.111962218E0,-1.945770264E0,-1.007073975E1,-1.183624268E0
8.116845030E0,-1.955337524E0,-1.006355286E1,-1.164474487E0
8.121727843E0,-1.981658936E0,-1.005876160E1,-1.128585815E0
8.126610655E0,-1.986450195E0,-1.004679871E1,-1.085510254E0
8.131493468E0,-1.943374634E0,-1.004679871E1,-1.059188843E0
8.136376280E0,-1.919448853E0,-1.003005981E1,-1.025695801E0
8.141259093E0,-1.885955811E0,-1.003723145E1,-9.682617188E-1
8.146141905E0,-1.905090332E0,-1.002047729E1,-9.395599365E-1
8.151024718E0,-1.881164551E0,-9.994155884E0,-9.084472656E-1
8.155907530E0,-1.883560181E0,-9.991775513E0,-9.060516357E-1
8.160790343E0,-1.866806030E0,-1.000134277E1,-8.869171143E-1
8.165642638E0,-1.845275879E0,-1.001809692E1,-8.821258545E-1
8.170525450E0,-1.795028687E0,-1.002047729E1,-8.605957031E-1
8.175408263E0,-1.771087646E0,-1.004441833E1,-8.462371826E-1
8.180291075E0,-1.754348755E0,-1.006834412E1,-8.318786621E-1
8.185173888E0,-1.723236084E0,-1.006594849E1,-8.653717041E-1
8.190056700E0,-1.749557495E0,-1.006834412E1,-9.012756348E-1
8.194939513E0,-1.747161865E0,-1.007791138E1,-9.443359375E-1
8.199822325E0,-1.797409058E0,-1.007791138E1,-9.539184570E-1
8.204705138E0,-1.785446167E0,-1.005398560E1,-9.634857178E-1
8.209587950E0,-1.804595947E0,-1.002526855E1,-9.754486084E-1
8.214470763E0,-1.833312988E0,-1.002526855E1,-9.586944580E-1
8.219353575E0,-1.821350098E0,-1.002047729E1,-9.515228271E-1
8.224236388E0,-1.833312988E0,-1.003005981E1,-9.323730469E-1
8.229119200E0,-1.847671509E0,-1.004679871E1,-9.347686768E-1
8.234002013E0,-1.854843140E0,-1.003723145E1,-9.299774170E-1
8.238854307E0,-1.878768921E0,-1.005876160E1,-9.132385254E-1
8.243737120E0,-1.878768921E0,-1.006834412E1,-9.204101562E-1
8.248619932E0,-1.852447510E0,-1.006115723E1,-9.156188965E-1
8.253502745E0,-1.811767578E0,-1.006115723E1,-8.988800049E-1
8.258385557E0,-1.780670166E0,-1.006115723E1,-9.204101562E-1
8.263268370E0,-1.730422974E0,-1.005638123E1,-9.108428955E-1
8.268151182E0,-1.739990234E0,-1.003962708E1,-9.060516357E-1
8.273033995E0,-1.747161865E0,-1.005158997E1,-9.204101562E-1
8.277916807E0,-1.754348755E0,-1.005876160E1,-9.084472656E-1
8.282799620E0,-1.725631714E0,-1.004679871E1,-9.132385254E-1
8.287682432E0,-1.701705933E0,-1.007791138E1,-9.275970459E-1
8.292565245E0,-1.699310303E0,-1.009226990E1,-9.539184570E-1
8.297448057E0,-1.661026001E0,-1.010662842E1,-9.922027588E-1
8.302330870E0,-1.665817261E0,-1.009226990E1,-1.042449951E0
8.307213682E0,-1.682556152E0,-1.009944153E1,-1.075942993E0
8.312096495E0,-1.696914673E0,-1.009944153E1,-1.104660034E0
8.316948790E0,-1.713668823E0,-1.008508301E1,-1.104660034E0
8.321831602E0,-1.704101562E0,-1.011380005E1,-1.073547363E0
8.326714415E0,-1.711273193E0,-1.013772583E1,-1.028091431E0
8.331597227E0,-1.701705933E0,-1.014491272E1,-9.682617188E-1
8.336480040E0,-1.644271851E0,-1.015447998E1,-9.180145264E-1
8.341362852E0,-1.591629028E0,-1.016404724E1,-8.653717041E-1
8.346245665E0,-1.574890137E0,-1.014491272E1,-8.151245117E-1
8.351128477E0,-1.560531616E0,-1.013055420E1,-7.864074707E-1
8.356011290E0,-1.548568726E0,-1.010902405E1,-7.553100586E-1
8.360894102E0,-1.548568726E0,-1.010423279E1,-7.409515381E-1
8.365776915E0,-1.553344727E0,-1.009704590E1,-7.289886475E-1
8.370659727E0,-1.570098877E0,-1.011859131E1,-7.289886475E-1
8.375542540E0,-1.589233398E0,-1.013294983E1,-7.289886475E-1
8.380425352E0,-1.591629028E0,-1.014730835E1,-7.481231689E-1
8.385308165E0,-1.577270508E0,-1.016404724E1,-7.361602783E-1
8.390190977E0,-1.567703247E0,-1.017601013E1,-7.577056885E-1
8.395043272E0,-1.562911987E0,-1.019036865E1,-7.720642090E-1
8.399926085E0,-1.558135986E0,-1.019755554E1,-7.744445801E-1
8.404808897E0,-1.577270508E0,-1.020472717E1,-7.983856201E-1
8.409691710E0,-1.572494507E0,-1.019515991E1,-8.103485107E-1
8.414574522E0,-1.584457397E0,-1.019036865E1,-8.270874023E-1
8.419457335E0,-1.598815918E0,-1.017601013E1,-8.366699219E-1
8.424340147E0,-1.627517700E0,-1.015927124E1,-8.677673340E-1
8.429222960E0,-1.629913330E0,-1.015687561E1,-8.845214844E-1
8.434105772E0,-1.663421631E0,-1.015447998E1,-8.964843750E-1
8.438988585E0,-1.694519043E0,-1.013055420E1,-8.893127441E-1
8.443871397E0,-1.694519043E0,-1.009466553E1,-9.252014160E-1
8.448754210E0,-1.728027344E0,-1.006355286E1,-9.610900879E-1
8.453637022E0,-1.723236084E0,-1.005638123E1,-9.802398682E-1
8.458519835E0,-1.756744385E0,-1.004919434E1,-9.634857178E-1
8.463402647E0,-1.747161865E0,-1.006594849E1,-9.706573486E-1
8.468285460E0,-1.761520386E0,-1.008270264E1,-9.491271973E-1
8.473137755E0,-1.761520386E0,-1.007551575E1,-9.275970459E-1
8.478020567E0,-1.768707275E0,-1.008747864E1,-9.204101562E-1
8.482903380E0,-1.771087646E0,-1.007791138E1,-9.132385254E-1
8.487786192E0,-1.787841797E0,-1.008508301E1,-9.012756348E-1
8.492669005E0,-1.797409058E0,-1.009944153E1,-8.940887451E-1
8.497551817E0,-1.838088989E0,-1.009704590E1,-8.797302246E-1
8.502434630E0,-1.854843140E0,-1.008270264E1,-8.773345947E-1
8.507317442E0,-1.907485962E0,-1.007551575E1,-8.749542236E-1
8.512200255E0,-1.945770264E0,-1.007551575E1,-8.558044434E-1
8.517083067E0,-1.979263306E0,-1.004679871E1,-8.797302246E-1
8.521965880E0,-2.041488647E0,-1.003483582E1,-8.773345947E-1
8.526848692E0,-2.094131470E0,-1.001091003E1,-8.845214844E-1
8.531731505E0,-2.156341553E0,-1.000134277E1,-8.797302246E-1
8.536614317E0,-2.187438965E0,-9.977416992E0,-8.677673340E-1
8.541497130E0,-2.235305786E0,-9.984588623E0,-8.821258545E-1
8.546349425E0,-2.287948608E0,-9.989379883E0,-8.486328125E-1
8.551232237E0,-2.335800171E0,-1.000851440E1,-8.103485107E-1
8.556115050E0,-2.362121582E0,-1.000851440E1,-7.983856201E-1
8.560997862E0,-2.359725952E0,-1.004441833E1,-7.433471680E-1
8.565880675E0,-2.374084473E0,-1.003483582E1,-7.385559082E-1
8.570763487E0,-2.383651733E0,-1.002287292E1,-7.553100586E-1
8.575646300E0,-2.386047363E0,-1.002047729E1,-7.864074707E-1
8.580529112E0,-2.417160034E0,-1.001570129E1,-8.199157715E-1
8.585411925E0,-2.436294556E0,-9.979812622E0,-8.390502930E-1
8.590294737E0,-2.474578857E0,-9.970230103E0,-8.438415527E-1
8.595177550E0,-2.510482788E0,-9.939132690E0,-8.558044434E-1
8.600060362E0,-2.543975830E0,-9.893661499E0,-8.677673340E-1
8.604943175E0,-2.579864502E0,-9.874526978E0,-8.893127441E-1
8.609825987E0,-2.627731323E0,-9.826660156E0,-8.988800049E-1
8.614708800E0,-2.682754517E0,-9.829055786E0,-9.060516357E-1
8.619591612E0,-2.716262817E0,-9.793167114E0,-9.012756348E-1
8.624443907E0,-2.730621338E0,-9.778808594E0,-9.132385254E-1
8.629326720E0,-2.730621338E0,-9.766845703E0,-8.845214844E-1
8.634209532E0,-2.725830078E0,-9.781204224E0,-8.701629639E-1
8.639092345E0,-2.692337036E0,-9.793167114E0,-8.342742920E-1
8.643975157E0,-2.639694214E0,-9.814697266E0,-8.223114014E-1
8.648857970E0,-2.579864502E0,-9.821884155E0,-7.983856201E-1
8.653740782E0,-2.491333008E0,-9.829055786E0,-8.007659912E-1
8.658623595E0,-2.402801514E0,-9.824264526E0,-8.366699219E-1
8.663506407E0,-2.350158691E0,-9.809921265E0,-8.653717041E-1
8.668389220E0,-2.331008911E0,-9.790771484E0,-9.228057861E-1
8.673272032E0,-2.309478760E0,-9.788375854E0,-9.491271973E-1
8.678154845E0,-2.256835938E0,-9.805130005E0,-9.658813477E-1
8.683037657E0,-2.182662964E0,-9.831451416E0,-9.610900879E-1
8.687920470E0,-2.096511841E0,-9.836242676E0,-9.491271973E-1
8.692803282E0,-1.996017456E0,-9.852981567E0,-9.323730469E-1
8.697686095E0,-1.926620483E0,-9.860168457E0,-8.988800049E-1
8.702538390E0,-1.835693359E0,-9.905624390E0,-9.012756348E-1
8.707421202E0,-1.739990234E0,-9.917587280E0,-8.869171143E-1
8.712304015E0,-1.665817261E0,-9.972625732E0,-9.012756348E-1
8.717186827E0,-1.608383179E0,-1.002526855E1,-9.443359375E-1
8.722069640E0,-1.565307617E0,-1.010423279E1,-1.006546021E0
8.726952452E0,-1.495925903E0,-1.018080139E1,-1.068771362E0
8.731835265E0,-1.426528931E0,-1.026216125E1,-1.140548706E0
8.736718077E0,-1.340393066E0,-1.034352112E1,-1.200378418E0
8.741600890E0,-1.256637573E0,-1.040093994E1,-1.226699829E0
8.746483702E0,-1.206390381E0,-1.044161987E1,-1.212341309E0
8.751366515E0,-1.168106079E0,-1.045597839E1,-1.212341309E0
8.756249327E0,-1.153747559E0,-1.045837402E1,-1.207550049E0
8.761132140E0,-1.180068970E0,-1.046315002E1,-1.190795898E0
8.766014952E0,-1.230316162E0,-1.047033691E1,-1.205154419E0
8.770897765E0,-1.251846313E0,-1.047273254E1,-1.212341309E0
8.775750059E0,-1.292526245E0,-1.046076965E1,-1.207550049E0
8.780632872E0,-1.361923218E0,-1.043205261E1,-1.209945679E0
8.785515684E0,-1.445663452E0,-1.038897705E1,-1.195587158E0
8.790398497E0,-1.491134644E0,-1.032197571E1,-1.140548706E0
8.795281309E0,-1.582061768E0,-1.024301147E1,-1.111831665E0
8.800164122E0,-1.668197632E0,-1.018080139E1,-1.008941650E0
8.805046934E0,-1.739990234E0,-1.012815857E1,-8.869171143E-1
8.809929747E0,-1.806991577E0,-1.005158997E1,-7.553100586E-1
8.814812559E0,-1.890731812E0,-9.998947144E0,-6.595916748E-1
8.819695372E0,-1.914657593E0,-9.967834473E0,-5.925903320E-1
8.824578184E0,-1.936203003E0,-9.951095581E0,-5.710601807E-1
8.829460997E0,-1.938598633E0,-9.924774170E0,-5.686645508E-1
8.834343809E0,-2.019943237E0,-9.929550171E0,-6.045532227E-1
8.839226622E0,-2.118057251E0,-9.781204224E0,-6.404571533E-1
8.844109434E0,-2.101303101E0,-9.266738892E0,-6.859130859E-1
8.848992247E0,-2.003204346E0,-9.630447388E0,-9.323730469E-1
8.853844542E0,-2.110870361E0,-1.005398560E1,-9.922027588E-1
8.858727354E0,-2.022338867E0,-1.029087830E1,-9.180145264E-1
8.863610167E0,-1.929016113E0,-1.032437134E1,-8.797302246E-1
8.868492979E0,-1.924240112E0,-1.025497437E1,-9.443359375E-1
8.873375792E0,-1.929016113E0,-1.010183716E1,-1.066375732E0
8.878258604E0,-1.881164551E0,-9.977416992E0,-1.092697144E0
8.883141417E0,-1.828521729E0,-9.900848389E0,-1.114227295E0
8.888024229E0,-1.790237427E0,-9.900848389E0,-1.119018555E0
8.892907042E0,-1.711273193E0,-9.941513062E0,-1.138153076E0
8.897789854E0,-1.646667480E0,-9.986984253E0,-1.147735596E0
8.902672667E0,-1.574890137E0,-1.001809692E1,-1.193191528E0
8.907555479E0,-1.553344727E0,-1.005638123E1,-1.229080200E0
8.912438292E0,-1.543777466E0,-1.012098694E1,-1.248229980E0
8.917321104E0,-1.567703247E0,-1.018559265E1,-1.269760132E0
8.922203917E0,-1.601211548E0,-1.024301147E1,-1.253021240E0
8.927056212E0,-1.637100220E0,-1.028608704E1,-1.200378418E0
8.931939024E0,-1.696914673E0,-1.030761719E1,-1.114227295E0
8.936821837E0,-1.756744385E0,-1.029325867E1,-1.073547363E0
8.941704649E0,-1.809387207E0,-1.027172852E1,-1.028091431E0
8.946587462E0,-1.842880249E0,-1.020712280E1,-9.850158691E-1
8.951470274E0,-1.912277222E0,-1.016883850E1,-9.419403076E-1
8.956353087E0,-1.979263306E0,-1.012576294E1,-8.797302246E-1
8.961235899E0,-2.022338867E0,-1.010183716E1,-8.486328125E-1
8.966118712E0,-2.065414429E0,-1.005876160E1,-8.151245117E-1
8.971001524E0,-2.137191772E0,-1.003483582E1,-7.744445801E-1
8.975884337E0,-2.182662964E0,-1.001330566E1,-7.816314697E-1
8.980767149E0,-2.211380005E0,-9.986984253E0,-7.744445801E-1
8.985649962E0,-2.247268677E0,-9.979812622E0,-7.864074707E-1
8.990532774E0,-2.256835938E0,-9.984588623E0,-7.840270996E-1
8.995415587E0,-2.271194458E0,-9.986984253E0,-7.792358398E-1
9.000298399E0,-2.285552979E0,-1.000373840E1,-7.624816895E-1
9.005150694E0,-2.285552979E0,-1.000613403E1,-7.529144287E-1
9.010033507E0,-2.249664307E0,-9.998947144E0,-7.553100586E-1
9.014916319E0,-2.223342896E0,-9.998947144E0,-7.840270996E-1
9.019799132E0,-2.180267334E0,-9.982192993E0,-8.103485107E-1
9.024681944E0,-2.141983032E0,-9.975021362E0,-8.414459229E-1
9.029564757E0,-2.125228882E0,-9.960662842E0,-8.916931152E-1
9.034447569E0,-2.110870361E0,-9.960662842E0,-9.562988281E-1
9.039330382E0,-2.106094360E0,-9.972625732E0,-1.016128540E0
9.044213194E0,-2.091735840E0,-9.986984253E0,-1.042449951E0
9.049096007E0,-2.084548950E0,-9.972625732E0,-1.092697144E0
9.053978819E0,-2.089340210E0,-9.972625732E0,-1.087905884E0
9.058861632E0,-2.091735840E0,-9.951095581E0,-1.080734253E0
9.063744444E0,-2.091735840E0,-9.946304321E0,-1.087905884E0
9.068627257E0,-2.094131470E0,-9.963058472E0,-1.075942993E0
9.073510069E0,-2.098907471E0,-9.946304321E0,-1.047225952E0
9.078392882E0,-2.098907471E0,-9.939132690E0,-1.063980103E0
9.083245177E0,-2.108489990E0,-9.917587280E0,-1.061584473E0
9.088127989E0,-2.115661621E0,-9.893661499E0,-1.054412842E0
9.093010802E0,-2.120452881E0,-9.900848389E0,-1.020904541E0
9.097893614E0,-2.120452881E0,-9.896057129E0,-1.001770020E0
9.102776427E0,-2.132415771E0,-9.912811279E0,-9.826202393E-1
9.107659239E0,-2.139587402E0,-9.943908691E0,-9.539184570E-1
9.112542052E0,-2.132415771E0,-9.982192993E0,-9.610900879E-1
9.117424864E0,-2.106094360E0,-9.972625732E0,-9.706573486E-1
9.122307677E0,-2.127624512E0,-9.998947144E0,-9.323730469E-1
9.127190489E0,-2.125228882E0,-9.982192993E0,-9.108428955E-1
9.132073302E0,-2.130020142E0,-1.004202271E1,-8.749542236E-1
9.136956114E0,-2.096511841E0,-1.007551575E1,-8.366699219E-1
9.141838927E0,-2.024734497E0,-1.010902405E1,-7.959899902E-1
9.146721739E0,-1.984054565E0,-1.011859131E1,-8.007659912E-1
9.151604552E0,-1.974487305E0,-1.010423279E1,-8.294830322E-1
9.156456847E0,-1.972091675E0,-1.007312012E1,-8.916931152E-1
9.161339659E0,-1.986450195E0,-1.004919434E1,-9.491271973E-1
9.166222472E0,-1.993621826E0,-1.001809692E1,-1.001770020E0
9.171105284E0,-2.022338867E0,-1.000134277E1,-1.040054321E0
9.175988097E0,-2.022338867E0,-1.000373840E1,-1.068771362E0
9.180870909E0,-2.024734497E0,-9.989379883E0,-1.102264404E0
9.185753722E0,-2.017547607E0,-9.984588623E0,-1.107055664E0
9.190636534E0,-2.003204346E0,-9.982192993E0,-1.099868774E0
9.195519347E0,-1.996017456E0,-9.986984253E0,-1.097488403E0
9.200402159E0,-1.955337524E0,-1.000373840E1,-1.056808472E0
9.205284972E0,-1.909881592E0,-1.001091003E1,-1.042449951E0
9.210167784E0,-1.852447510E0,-1.003244019E1,-1.001770020E0
9.215050597E0,-1.826126099E0,-1.001091003E1,-9.850158691E-1
9.219933409E0,-1.814163208E0,-1.000613403E1,-1.011337280E0
9.224816222E0,-1.792633057E0,-1.002287292E1,-9.826202393E-1
9.229699034E0,-1.773483276E0,-1.002766418E1,-1.004165649E0
9.234551329E0,-1.754348755E0,-1.002766418E1,-1.023300171E0
9.239434141E0,-1.735198975E0,-1.004919434E1,-1.023300171E0
9.244316954E0,-1.730422974E0,-1.007073975E1,-1.040054321E0
9.249199766E0,-1.751953125E0,-1.009226990E1,-1.047225952E0
9.254082579E0,-1.756744385E0,-1.011380005E1,-1.040054321E0
9.258965391E0,-1.773483276E0,-1.013772583E1,-1.032867432E0
9.263848204E0,-1.804595947E0,-1.016883850E1,-1.018524170E0
9.268731016E0,-1.804595947E0,-1.019515991E1,-1.018524170E0
9.273613829E0,-1.826126099E0,-1.018319702E1,-1.042449951E0
9.278496641E0,-1.852447510E0,-1.015208435E1,-1.032867432E0
9.283379454E0,-1.890731812E0,-1.012815857E1,-1.040054321E0
9.288262266E0,-1.933807373E0,-1.006594849E1,-1.030487061E0
9.293145079E0,-1.955337524E0,-1.002047729E1,-1.030487061E0
9.298027891E0,-1.979263306E0,-9.982192993E0,-1.006546021E0
9.302910704E0,-1.998413086E0,-9.936737061E0,-9.802398682E-1
9.307793516E0,-2.027130127E0,-9.915206909E0,-9.491271973E-1
9.312645811E0,-2.024734497E0,-9.912811279E0,-8.916931152E-1
9.317528624E0,-2.027130127E0,-9.922378540E0,-8.390502930E-1
9.322411436E0,-2.000808716E0,-9.929550171E0,-8.246917725E-1
9.327294249E0,-1.984054565E0,-9.941513062E0,-7.864074707E-1
9.332177061E0,-1.974487305E0,-1.000373840E1,-7.648773193E-1
9.337059874E0,-1.945770264E0,-1.007073975E1,-7.983856201E-1
9.341942686E0,-1.917053223E0,-1.014251709E1,-7.935943604E-1
9.346825499E0,-1.902694702E0,-1.019515991E1,-8.079528809E-1
9.351708311E0,-1.888336182E0,-1.023344421E1,-7.911987305E-1
9.356591124E0,-1.883560181E0,-1.025497437E1,-8.366699219E-1
9.361473936E0,-1.878768921E0,-1.025497437E1,-8.534088135E-1
9.366356749E0,-1.842880249E0,-1.025497437E1,-8.677673340E-1
9.371239561E0,-1.833312988E0,-1.022387695E1,-8.629913330E-1
9.376122374E0,-1.814163208E0,-1.020951843E1,-8.486328125E-1
9.381005186E0,-1.838088989E0,-1.019036865E1,-8.510131836E-1
9.385887999E0,-1.847671509E0,-1.016404724E1,-8.749542236E-1
9.390740294E0,-1.850051880E0,-1.016883850E1,-8.773345947E-1
9.395623106E0,-1.830917358E0,-1.016883850E1,-8.653717041E-1
9.400505919E0,-1.780670166E0,-1.017362976E1,-8.270874023E-1
9.405388731E0,-1.785446167E0,-1.017362976E1,-7.888031006E-1
9.410271544E0,-1.756744385E0,-1.013534546E1,-7.505187988E-1
9.415154356E0,-1.728027344E0,-1.011859131E1,-7.433471680E-1
9.420037169E0,-1.732803345E0,-1.012815857E1,-7.481231689E-1
9.424919981E0,-1.742385864E0,-1.010183716E1,-7.672729492E-1
9.429802794E0,-1.756744385E0,-1.007551575E1,-8.270874023E-1
9.434685606E0,-1.766311646E0,-1.004202271E1,-8.725585938E-1
9.439568419E0,-1.775878906E0,-1.000134277E1,-9.204101562E-1
9.444451231E0,-1.783065796E0,-1.000134277E1,-9.898071289E-1
9.449334044E0,-1.795028687E0,-9.998947144E0,-1.044845581E0
9.454216856E0,-1.795028687E0,-9.996551514E0,-1.073547363E0
9.459099669E0,-1.826126099E0,-9.996551514E0,-1.095092773E0
9.463951964E0,-1.845275879E0,-1.000851440E1,-1.083129883E0
9.468834776E0,-1.845275879E0,-1.001570129E1,-1.059188843E0
9.473717589E0,-1.833312988E0,-1.003483582E1,-1.037658691E0
9.478600401E0,-1.847671509E0,-1.000613403E1,-1.004165649E0
9.483483214E0,-1.845275879E0,-9.994155884E0,-9.562988281E-1
9.488366026E0,-1.864410400E0,-9.986984253E0,-9.252014160E-1
9.493248839E0,-1.888336182E0,-9.986984253E0,-8.964843750E-1
9.498131651E0,-1.929016113E0,-9.989379883E0,-8.701629639E-1
9.503014464E0,-1.957733154E0,-9.996551514E0,-8.605957031E-1
9.507897276E0,-1.967300415E0,-1.001570129E1,-8.486328125E-1
9.512780089E0,-2.000808716E0,-1.005398560E1,-8.127288818E-1
9.517662901E0,-1.993621826E0,-1.010183716E1,-7.864074707E-1
9.522545714E0,-1.974487305E0,-1.016644287E1,-7.146301270E-1
9.527428526E0,-1.957733154E0,-1.023344421E1,-6.811370850E-1
9.532311339E0,-1.902694702E0,-1.028369141E1,-6.404571533E-1
9.537194151E0,-1.835693359E0,-1.030284119E1,-5.830230713E-1
9.542046446E0,-1.787841797E0,-1.029565430E1,-5.686645508E-1
9.546929259E0,-1.778274536E0,-1.026933289E1,-6.069488525E-1
9.551812071E0,-1.795028687E0,-1.023104858E1,-6.667785645E-1
9.556694884E0,-1.811767578E0,-1.020712280E1,-7.409515381E-1
9.561577696E0,-1.881164551E0,-1.017362976E1,-8.246917725E-1
9.566460509E0,-1.912277222E0,-1.013294983E1,-8.940887451E-1
9.571343321E0,-1.950561523E0,-1.009466553E1,-9.275970459E-1
9.576226134E0,-1.979263306E0,-1.008030701E1,-9.539184570E-1
9.581108946E0,-2.034301758E0,-1.006355286E1,-9.898071289E-1
9.585991759E0,-2.051055908E0,-1.005398560E1,-1.004165649E0
9.590874571E0,-2.077377319E0,-1.003483582E1,-1.020904541E0
9.595757384E0,-2.086944580E0,-1.001330566E1,-1.030487061E0
9.600640196E0,-2.096511841E0,-9.965454102E0,-1.023300171E0
9.605523009E0,-2.110870361E0,-9.919982910E0,-1.011337280E0
9.610405821E0,-2.120452881E0,-9.869735718E0,-9.945831299E-1
9.615288634E0,-2.168304443E0,-9.833847046E0,-9.586944580E-1
9.620140929E0,-2.182662964E0,-9.785980225E0,-9.491271973E-1
9.625023741E0,-2.223342896E0,-9.766845703E0,-9.108428955E-1
9.629906554E0,-2.256835938E0,-9.742919922E0,-8.701629639E-1
9.634789366E0,-2.268798828E0,-9.769241333E0,-8.318786621E-1
9.639672179E0,-2.287948608E0,-9.759658813E0,-7.792358398E-1
9.644554991E0,-2.326232910E0,-9.785980225E0,-7.385559082E-1
9.649437804E0,-2.364517212E0,-9.819488525E0,-7.074432373E-1
9.654320616E0,-2.414764404E0,-9.869735718E0,-6.763458252E-1
9.659203429E0,-2.426727295E0,-9.919982910E0,-6.691589355E-1
9.664086241E0,-2.448257446E0,-9.970230103E0,-6.428375244E-1
9.668969054E0,-2.472198486E0,-1.003244019E1,-6.332702637E-1
9.673851866E0,-2.481765747E0,-1.008987427E1,-6.883087158E-1
9.678734679E0,-2.476974487E0,-1.014968872E1,-7.050628662E-1
9.683617491E0,-2.498519897E0,-1.019515991E1,-7.313842773E-1
9.688500304E0,-2.486541748E0,-1.022148132E1,-7.505187988E-1
9.693383116E0,-2.469802856E0,-1.019995117E1,-7.720642090E-1
9.698235411E0,-2.457839966E0,-1.020472717E1,-7.983856201E-1
9.703118224E0,-2.424331665E0,-1.017362976E1,-7.792358398E-1
9.708001036E0,-2.331008911E0,-1.013294983E1,-7.672729492E-1
9.712883849E0,-2.259231567E0,-1.007791138E1,-7.481231689E-1
9.717766661E0,-2.170700073E0,-9.975021362E0,-7.457427979E-1
9.722649474E0,-2.110870361E0,-9.893661499E0,-7.864074707E-1
9.727532286E0,-2.086944580E0,-9.819488525E0,-8.127288818E-1
9.732415099E0,-2.122833252E0,-9.750091553E0,-8.582000732E-1
9.737297911E0,-2.122833252E0,-9.728561401E0,-8.797302246E-1
9.742180724E0,-2.144378662E0,-9.695053101E0,-8.797302246E-1
9.747063536E0,-2.151550293E0,-9.718994141E0,-8.629913330E-1
9.751946349E0,-2.180267334E0,-9.735733032E0,-8.629913330E-1
9.756829161E0,-2.182662964E0,-9.764450073E0,-8.582000732E-1
9.761711974E0,-2.180267334E0,-9.795562744E0,-8.653717041E-1
9.766594786E0,-2.194625854E0,-9.864944458E0,-8.438415527E-1
9.771447081E0,-2.216156006E0,-9.948699951E0,-8.270874023E-1
9.776329893E0,-2.201797485E0,-1.002287292E1,-7.935943604E-1
9.781212706E0,-2.185058594E0,-1.006355286E1,-7.935943604E-1
9.786095518E0,-2.149154663E0,-1.009704590E1,-7.840270996E-1
9.790978331E0,-2.118057251E0,-1.008987427E1,-7.792358398E-1
9.795861143E0,-2.130020142E0,-1.011380005E1,-7.911987305E-1
9.800743956E0,-2.106094360E0,-1.013772583E1,-8.127288818E-1
9.805626768E0,-2.086944580E0,-1.015687561E1,-7.864074707E-1
9.810509581E0,-2.089340210E0,-1.018559265E1,-7.648773193E-1
9.815392393E0,-2.058227539E0,-1.016883850E1,-7.409515381E-1
9.820275206E0,-2.029525757E0,-1.014968872E1,-7.457427979E-1
9.825158018E0,-2.022338867E0,-1.011380005E1,-7.481231689E-1
9.830040831E0,-2.012771606E0,-1.008987427E1,-7.361602783E-1
9.834923643E0,-2.046264648E0,-1.005158997E1,-7.122344971E-1
9.839806456E0,-2.053451538E0,-1.001330566E1,-6.883087158E-1
9.844689268E0,-2.074981689E0,-9.989379883E0,-6.500244141E-1
9.849541563E0,-2.125228882E0,-9.986984253E0,-6.332702637E-1
9.854424376E0,-2.132415771E0,-1.002766418E1,-6.093444824E-1
9.859307188E0,-2.170700073E0,-1.007791138E1,-5.949859619E-1
9.864190001E0,-2.175476074E0,-1.014012146E1,-5.854187012E-1
9.869072813E0,-2.158737183E0,-1.020472717E1,-5.614929199E-1
9.873955626E0,-2.141983032E0,-1.022865295E1,-5.686645508E-1
9.878838438E0,-2.113265991E0,-1.024780273E1,-5.878143311E-1
9.883721251E0,-2.113265991E0,-1.024301147E1,-6.045532227E-1
9.888604063E0,-2.098907471E0,-1.024061584E1,-6.667785645E-1
9.893486876E0,-2.079772949E0,-1.021908569E1,-6.954803467E-1
9.898369688E0,-2.091735840E0,-1.017601013E1,-7.074432373E-1
9.903252501E0,-2.096511841E0,-1.009704590E1,-7.744445801E-1
9.908135313E0,-2.137191772E0,-1.001091003E1,-7.792358398E-1
9.913018126E0,-2.163513184E0,-9.934341431E0,-7.840270996E-1
9.917900938E0,-2.175476074E0,-9.845809937E0,-7.888031006E-1
